BPM,AvgBPM,IR_value,Accel_X,Accel_Y,Accel_Z,A_total
0.0,0.0,1318,-3.3,-9.73,0.82,10.3
0.0,0.0,1319,-3.26,-9.77,0.82,10.33
0.0,0.0,1318,-3.3,-9.73,0.75,10.3
0.0,0.0,1311,-3.26,-9.73,0.82,10.29
0.0,0.0,1323,-3.26,-9.77,0.78,10.33
0.0,0.0,1324,-3.26,-9.77,0.71,10.32
0.0,0.0,1313,-3.3,-9.73,0.75,10.3
0.0,0.0,1325,-3.26,-9.77,0.78,10.33
0.0,0.0,1305,-3.3,-9.69,0.82,10.27
0.0,0.0,1322,-3.26,-9.73,0.78,10.29
0.0,0.0,1318,-3.3,-9.77,0.82,10.34
0.0,0.0,1325,-3.26,-9.81,0.86,10.37
0.0,0.0,1320,-3.26,-9.73,0.78,10.29
0.0,0.0,1319,-3.3,-9.77,0.75,10.34
0.0,0.0,1320,-3.3,-9.77,0.78,10.34
0.0,0.0,1318,-3.33,-9.73,0.78,10.31
0.0,0.0,1290,-3.26,-9.73,0.82,10.29
0.0,0.0,1315,-3.33,-9.73,0.78,10.31
0.0,0.0,1325,-3.3,-9.73,0.78,10.3
0.0,0.0,1339,-3.26,-9.77,0.78,10.33
0.0,0.0,1312,-3.3,-9.73,0.86,10.31
0.0,0.0,1323,-3.3,-9.77,0.86,10.34
0.0,0.0,1318,-3.3,-9.73,0.78,10.3
0.0,0.0,1315,-3.26,-9.77,0.82,10.33
0.0,0.0,1341,-3.3,-9.73,0.78,10.3
0.0,0.0,1319,-3.33,-9.73,0.78,10.31
0.0,0.0,1319,-3.26,-9.77,0.86,10.33
0.0,0.0,1336,-3.3,-9.73,0.75,10.3
0.0,0.0,1321,-3.33,-9.73,0.78,10.31
0.0,0.0,1316,-3.3,-9.69,0.75,10.26
0.0,0.0,1322,-3.26,-9.73,0.86,10.29
0.0,0.0,1325,-3.26,-9.77,0.78,10.33
0.0,0.0,1317,-3.3,-9.69,0.78,10.26
0.0,0.0,1327,-3.3,-9.77,0.78,10.34
0.0,0.0,1322,-3.26,-9.81,0.78,10.36
0.0,0.0,1306,-3.26,-9.77,0.78,10.33
0.0,0.0,1329,-3.33,-9.77,0.75,10.35
0.0,0.0,1344,-3.26,-9.77,0.75,10.32
0.0,0.0,1307,-3.3,-9.77,0.82,10.34
0.0,0.0,1324,-3.3,-9.77,0.78,10.34
0.0,0.0,1321,-3.26,-9.77,0.78,10.33
0.0,0.0,1597,-3.53,-9.61,1.1,10.3
0.0,0.0,1590,-3.49,-9.69,1.14,10.36
0.0,0.0,1602,-3.49,-9.65,1.1,10.32
0.0,0.0,1584,-3.57,-9.61,1.14,10.31
0.0,0.0,1607,-3.53,-9.73,1.29,10.43
0.0,0.0,1593,-3.53,-9.65,1.18,10.34
0.0,0.0,1586,-3.57,-9.65,1.14,10.35
0.0,0.0,1589,-3.53,-9.69,1.1,10.37
0.0,0.0,1583,-3.53,-9.69,1.06,10.37
0.0,0.0,1581,-3.53,-9.69,1.14,10.37
0.0,0.0,1591,-3.53,-9.69,1.1,10.37
0.0,0.0,1607,-3.49,-9.73,1.1,10.39
0.0,0.0,1592,-3.53,-9.69,1.1,10.37
0.0,0.0,1617,-3.53,-9.69,1.18,10.38
0.0,0.0,1572,-3.57,-9.65,1.1,10.35
0.0,0.0,1587,-3.53,-9.65,1.14,10.34
0.0,0.0,1595,-3.57,-9.69,1.1,10.38
0.0,0.0,1622,-3.57,-9.65,1.14,10.35
0.0,0.0,1598,-3.57,-9.65,1.1,10.35
0.0,0.0,1597,-3.53,-9.65,1.1,10.33
0.0,0.0,1591,-3.57,-9.69,1.18,10.39
0.0,0.0,1595,-3.53,-9.65,1.18,10.34
0.0,0.0,1588,-3.57,-9.65,1.18,10.36
0.0,0.0,1594,-3.57,-9.69,1.14,10.39
0.0,0.0,1590,-3.57,-9.65,1.22,10.36
0.0,0.0,1592,-3.57,-9.65,1.06,10.34
0.0,0.0,1601,-3.49,-9.69,1.1,10.36
0.0,0.0,1587,-3.57,-9.69,1.1,10.38
0.0,0.0,1613,-3.53,-9.69,1.1,10.37
0.0,0.0,1587,-3.53,-9.65,1.14,10.34
0.0,0.0,1595,-3.53,-9.65,1.14,10.34
0.0,0.0,1595,-3.57,-9.61,1.14,10.31
0.0,0.0,1619,-3.49,-9.73,1.18,10.4
0.0,0.0,1591,-3.53,-9.73,1.1,10.41
0.0,0.0,1609,-3.53,-9.69,1.14,10.37
0.0,0.0,1586,-3.57,-9.65,1.18,10.36
0.0,0.0,1589,-3.53,-9.57,1.18,10.27
0.0,0.0,1605,-3.53,-9.65,1.14,10.34
0.0,0.0,1592,-3.53,-9.69,1.14,10.37
0.0,0.0,1591,-3.57,-9.65,1.18,10.36
0.0,0.0,1580,-3.61,-9.69,1.02,10.39
0.0,0.0,1584,-3.49,-9.65,1.1,10.32
0.0,0.0,1596,-3.53,-9.61,1.26,10.32
0.0,0.0,1620,-3.57,-9.77,0.98,10.45
0.0,0.0,1590,-3.53,-9.57,1.26,10.28
0.0,0.0,1600,-3.57,-9.65,1.18,10.36
0.0,0.0,1582,-3.53,-9.69,1.14,10.37
0.0,0.0,1590,-3.53,-9.61,1.22,10.31
0.0,0.0,1599,-3.61,-9.85,0.86,10.52
0.0,0.0,1615,-3.53,-9.53,1.18,10.23
0.0,0.0,1594,-3.53,-9.61,1.22,10.31
0.0,0.0,1610,-3.57,-9.65,1.14,10.35
0.0,0.0,1594,-3.57,-9.69,1.1,10.38
0.0,0.0,1593,-3.53,-9.69,1.1,10.37
0.0,0.0,1595,-3.57,-9.65,1.18,10.36
0.0,0.0,1592,-3.53,-9.69,1.1,10.37
0.0,0.0,1600,-3.53,-9.69,1.1,10.37
0.0,0.0,1590,-3.53,-9.65,1.14,10.34
0.0,0.0,1588,-3.53,-9.69,1.1,10.37
0.0,0.0,1596,-3.49,-9.65,1.06,10.32
0.0,0.0,1612,-3.57,-9.65,1.1,10.35
0.0,0.0,1594,-3.57,-9.69,1.22,10.4
0.0,0.0,1592,-3.53,-9.65,1.18,10.34
0.0,0.0,1595,-3.57,-9.65,1.14,10.35
0.0,0.0,1618,-3.57,-9.65,1.18,10.36
0.0,0.0,1610,-3.53,-9.69,1.14,10.37
0.0,0.0,1582,-3.49,-9.65,1.26,10.34
0.0,0.0,1603,-3.57,-9.65,1.18,10.36
0.0,0.0,1603,-3.57,-9.61,1.22,10.32
0.0,0.0,1595,-3.45,-9.65,1.1,10.31
0.0,0.0,1569,-3.57,-9.73,1.14,10.42
0.0,0.0,1594,-3.61,-9.69,1.14,10.4
0.0,0.0,1595,-3.45,-9.73,1.14,10.38
0.0,0.0,1594,-3.61,-9.61,1.14,10.33
0.0,0.0,1595,-3.53,-9.65,1.18,10.34
0.0,0.0,1577,-3.41,-9.85,1.1,10.48
0.0,0.0,1592,-3.57,-9.69,1.1,10.38
0.0,0.0,1601,-3.57,-9.61,1.18,10.32
0.0,0.0,1592,-3.57,-9.61,1.18,10.32
0.0,0.0,1590,-3.53,-9.65,1.18,10.34
0.0,0.0,1574,-3.53,-9.69,1.14,10.37
0.0,0.0,1598,-3.53,-9.69,1.06,10.37
0.0,0.0,1591,-3.57,-9.69,1.1,10.38
0.0,0.0,1597,-3.53,-9.61,1.22,10.31
0.0,0.0,1600,-3.49,-9.49,1.26,10.19
0.0,0.0,1587,-3.57,-9.65,1.14,10.35
0.0,0.0,1576,-3.57,-9.69,1.02,10.38
0.0,0.0,1589,-3.57,-9.57,1.14,10.28
0.0,0.0,1597,-3.53,-9.73,0.98,10.4
0.0,0.0,1591,-3.53,-9.69,1.18,10.38
0.0,0.0,1591,-3.57,-9.65,1.14,10.35
0.0,0.0,1595,-3.53,-9.57,1.14,10.26
0.0,0.0,1592,-3.53,-9.73,1.14,10.41
0.0,0.0,1583,-3.61,-9.69,0.9,10.38
0.0,0.0,1592,-3.53,-9.65,1.1,10.33
0.0,0.0,1590,-3.69,-9.65,1.33,10.42
0.0,0.0,1600,-3.57,-9.65,1.18,10.36
0.0,0.0,1593,-3.49,-9.65,1.14,10.32
0.0,0.0,1595,-3.53,-9.65,1.1,10.33
0.0,0.0,1597,-3.53,-9.69,1.1,10.37
0.0,0.0,1593,-3.53,-9.65,1.18,10.34
0.0,0.0,1593,-3.53,-9.69,1.06,10.37
0.0,0.0,1584,-3.53,-9.65,1.18,10.34
0.0,0.0,1618,-3.57,-9.61,1.14,10.31
0.0,0.0,1599,-3.53,-9.65,1.22,10.35
0.0,0.0,1591,-3.53,-9.61,1.14,10.3
0.0,0.0,1592,-3.53,-9.65,1.14,10.34
0.0,0.0,1600,-3.57,-9.73,1.1,10.42
0.0,0.0,1589,-3.57,-9.69,1.14,10.39
0.0,0.0,1599,-3.53,-9.69,1.14,10.37
0.0,0.0,1590,-3.57,-9.65,1.18,10.36
0.0,0.0,1593,-3.57,-9.65,1.1,10.35
0.0,0.0,1592,-3.61,-9.65,1.1,10.36
0.0,0.0,1596,-3.53,-9.65,1.14,10.34
0.0,0.0,1583,-3.57,-9.69,1.18,10.39
0.0,0.0,1593,-3.61,-9.69,1.18,10.41
0.0,0.0,1592,-3.53,-9.65,1.14,10.34
0.0,0.0,1592,-3.57,-9.69,1.14,10.39
0.0,0.0,1598,-3.57,-9.65,1.18,10.36
0.0,0.0,1597,-3.57,-9.65,1.1,10.35
0.0,0.0,1592,-3.53,-9.65,1.22,10.35
0.0,0.0,1587,-3.57,-9.65,1.14,10.35
0.0,0.0,1591,-3.53,-9.69,1.18,10.38
0.0,0.0,1594,-3.57,-9.65,1.18,10.36
0.0,0.0,1596,-3.53,-9.69,1.18,10.38
0.0,0.0,1592,-3.53,-9.61,1.18,10.31
0.0,0.0,1600,-3.57,-9.61,1.18,10.32
0.0,0.0,1609,-3.57,-9.65,1.14,10.35
0.0,0.0,1597,-3.57,-9.65,1.1,10.35
0.0,0.0,1567,-3.57,-9.65,1.14,10.35
0.0,0.0,1586,-3.53,-9.61,1.22,10.31
0.0,0.0,1597,-3.57,-9.69,1.14,10.39
0.0,0.0,1600,-3.61,-9.69,1.06,10.39
0.0,0.0,1593,-3.57,-9.73,1.1,10.42
0.0,0.0,1598,-3.57,-9.61,1.1,10.31
0.0,0.0,1597,-3.57,-9.65,1.22,10.36
0.0,0.0,1596,-3.65,-9.61,1.37,10.37
0.0,0.0,1612,-3.45,-9.85,1.1,10.49
0.0,0.0,1599,-3.61,-9.65,1.1,10.36
0.0,0.0,1606,-3.53,-9.69,1.1,10.37
0.0,0.0,1608,-3.57,-9.61,1.14,10.31
0.0,0.0,1601,-3.57,-9.65,1.14,10.35
0.0,0.0,1621,-3.57,-9.65,1.14,10.35
0.0,0.0,1570,-3.57,-9.65,1.14,10.35
0.0,0.0,1594,-3.57,-9.73,1.14,10.42
0.0,0.0,1598,-3.57,-9.65,1.1,10.35
0.0,0.0,1594,-3.53,-9.65,1.18,10.34
0.0,0.0,1619,-3.57,-9.69,1.18,10.39
0.0,0.0,1590,-3.61,-9.61,1.14,10.33
0.0,0.0,1595,-3.57,-9.69,1.18,10.39
0.0,0.0,1597,-3.61,-9.57,1.18,10.3
0.0,0.0,1599,-3.57,-9.65,1.1,10.35
0.0,0.0,1592,-3.69,-9.69,1.14,10.43
0.0,0.0,1571,-3.53,-9.65,1.14,10.34
0.0,0.0,1592,-3.57,-9.61,1.18,10.32
0.0,0.0,1595,-3.53,-9.65,1.14,10.34
0.0,0.0,1591,-3.49,-9.69,1.14,10.36
0.0,0.0,1592,-3.53,-9.65,1.14,10.34
0.0,0.0,1591,-3.53,-9.69,1.1,10.37
0.0,0.0,1597,-3.53,-9.65,1.14,10.34
0.0,0.0,1611,-3.57,-9.69,1.14,10.39
0.0,0.0,1594,-3.57,-9.69,1.14,10.39
0.0,0.0,1610,-3.57,-9.69,1.22,10.4
0.0,0.0,1598,-3.53,-9.65,1.14,10.34
0.0,0.0,1576,-3.53,-9.65,1.14,10.34
0.0,0.0,1598,-3.57,-9.65,1.18,10.36
0.0,0.0,1604,-3.53,-9.65,1.14,10.34
0.0,0.0,1624,-3.53,-9.69,1.06,10.37
0.0,0.0,1595,-3.53,-9.65,1.18,10.34
0.0,0.0,1600,-3.53,-9.65,1.18,10.34
0.0,0.0,1592,-3.53,-9.69,1.14,10.37
0.0,0.0,1592,-3.57,-9.69,1.18,10.39
0.0,0.0,1596,-3.61,-9.61,1.14,10.33
0.0,0.0,1589,-3.53,-9.69,1.18,10.38
0.0,0.0,1594,-3.57,-9.69,1.29,10.41
0.0,0.0,1598,-3.57,-9.61,1.1,10.31
0.0,0.0,1593,-3.53,-9.69,1.1,10.37
0.0,0.0,1591,-3.57,-9.73,1.1,10.42
0.0,0.0,1597,-3.57,-9.73,1.1,10.42
0.0,0.0,1602,-3.53,-9.65,1.1,10.33
0.0,0.0,1595,-3.57,-9.57,1.18,10.28
0.0,0.0,1592,-3.61,-9.61,1.14,10.33
0.0,0.0,1598,-3.57,-9.61,1.1,10.31
0.0,0.0,1594,-3.53,-9.69,1.14,10.37
0.0,0.0,1597,-3.61,-9.65,1.18,10.37
0.0,0.0,1618,-3.57,-9.61,1.14,10.31
0.0,0.0,1566,-3.57,-9.65,1.1,10.35
0.0,0.0,1580,-3.49,-9.61,1.14,10.29
0.0,0.0,1595,-3.53,-9.61,1.26,10.32
0.0,0.0,1597,-3.53,-9.65,1.18,10.34
0.0,0.0,1592,-3.53,-9.61,1.18,10.31
0.0,0.0,1597,-3.53,-9.69,1.02,10.36
0.0,0.0,1571,-3.61,-9.65,1.06,10.36
0.0,0.0,1590,-3.57,-9.65,1.06,10.34
0.0,0.0,1597,-3.57,-9.65,1.18,10.36
0.0,0.0,1597,-3.53,-9.61,1.18,10.31
0.0,0.0,1610,-3.57,-9.69,1.14,10.39
0.0,0.0,1588,-3.53,-9.57,1.26,10.28
0.0,0.0,1597,-3.49,-9.81,1.14,10.47
0.0,0.0,1597,-3.57,-9.61,1.14,10.31
0.0,0.0,1593,-3.57,-9.65,1.1,10.35
0.0,0.0,1595,-3.61,-9.65,1.1,10.36
0.0,0.0,1594,-3.57,-9.65,1.14,10.35
0.0,0.0,1605,-3.61,-9.61,1.18,10.33
0.0,0.0,1602,-3.57,-9.89,1.18,10.58
0.0,0.0,1599,-3.57,-9.65,1.14,10.35
0.0,0.0,1600,-3.57,-9.65,1.02,10.34
0.0,0.0,1611,-3.61,-9.69,1.14,10.4
0.0,0.0,1594,-3.77,-9.69,1.1,10.45
0.0,0.0,1594,-3.61,-9.69,1.02,10.39
0.0,0.0,1581,-3.65,-9.89,0.86,10.57
0.0,0.0,1596,-3.61,-9.53,1.18,10.26
0.0,0.0,1596,-3.57,-9.57,1.26,10.29
0.0,0.0,1620,-3.57,-9.73,1.14,10.42
0.0,0.0,1592,-3.61,-9.73,1.1,10.43
0.0,0.0,1599,-3.53,-9.69,1.1,10.37
0.0,0.0,1594,-3.53,-9.69,1.18,10.38
0.0,0.0,1587,-3.53,-9.73,0.9,10.39
0.0,0.0,1602,-3.53,-9.57,1.06,10.26
0.0,0.0,1586,-3.49,-9.65,1.14,10.32
0.0,0.0,1594,-3.53,-9.61,1.18,10.31
0.0,0.0,1599,-3.57,-9.65,1.1,10.35
0.0,0.0,1600,-3.57,-9.65,1.14,10.35
0.0,0.0,1602,-3.53,-9.65,1.18,10.34
0.0,0.0,1598,-3.57,-9.61,1.14,10.31
0.0,0.0,1600,-3.57,-9.65,1.18,10.36
0.0,0.0,1618,-3.45,-9.49,1.02,10.15
0.0,0.0,1604,-3.65,-9.77,0.94,10.47
0.0,0.0,1599,-3.57,-9.57,1.22,10.29
0.0,0.0,1593,-3.53,-9.65,1.1,10.33
0.0,0.0,1593,-3.49,-9.53,1.22,10.22
0.0,0.0,1580,-3.57,-9.53,1.22,10.25
0.0,0.0,1595,-3.49,-9.61,1.18,10.29
0.0,0.0,1599,-3.49,-9.73,1.02,10.39
0.0,0.0,1592,-3.53,-9.77,1.14,10.45
0.0,0.0,1598,-3.65,-9.53,1.22,10.28
0.0,0.0,1593,-3.57,-9.65,1.14,10.35
0.0,0.0,1599,-3.57,-9.81,1.02,10.49
0.0,0.0,1600,-3.53,-9.65,1.26,10.35
0.0,0.0,1616,-3.57,-9.57,1.14,10.28
0.0,0.0,1599,-3.53,-9.65,1.29,10.36
0.0,0.0,1587,-3.57,-9.61,1.14,10.31
0.0,0.0,1590,-3.53,-9.49,1.1,10.19
0.0,0.0,1601,-3.57,-9.69,1.02,10.38
0.0,0.0,1594,-3.57,-9.57,1.22,10.29
0.0,0.0,1617,-3.57,-9.69,0.98,10.37
0.0,0.0,1582,-3.57,-9.69,1.14,10.39
0.0,0.0,1595,-3.57,-9.61,1.14,10.31
0.0,0.0,1600,-3.53,-9.65,1.18,10.34
0.0,0.0,1621,-3.49,-9.57,1.26,10.27
0.0,0.0,1598,-3.53,-9.69,1.1,10.37
0.0,0.0,1582,-3.53,-9.73,1.14,10.41
0.0,0.0,1592,-3.53,-9.65,1.18,10.34
0.0,0.0,1599,-3.53,-9.65,1.18,10.34
0.0,0.0,1584,-3.49,-9.61,1.14,10.29
0.0,0.0,1576,-3.57,-9.61,1.18,10.32
0.0,0.0,1601,-3.57,-9.65,1.1,10.35
0.0,0.0,1597,-3.57,-9.65,1.18,10.36
0.0,0.0,1600,-3.65,-9.69,1.18,10.42
0.0,0.0,1600,-3.49,-9.61,1.18,10.29
0.0,0.0,1591,-3.61,-9.61,1.14,10.33
0.0,0.0,1593,-3.57,-9.65,1.1,10.35
0.0,0.0,1596,-3.57,-9.65,1.18,10.36
0.0,0.0,1596,-3.61,-9.65,1.14,10.37
0.0,0.0,1601,-3.57,-9.69,1.1,10.38
0.0,0.0,1600,-3.57,-9.65,1.18,10.36
0.0,0.0,1625,-3.57,-9.57,1.18,10.28
0.0,0.0,1584,-3.57,-9.69,1.14,10.39
0.0,0.0,1592,-3.53,-9.69,1.06,10.37
0.0,0.0,1596,-3.57,-9.69,1.14,10.39
0.0,0.0,1596,-3.53,-9.69,1.18,10.38
0.0,0.0,1596,-3.53,-9.65,1.1,10.33
0.0,0.0,1619,-3.53,-9.61,1.18,10.31
0.0,0.0,1601,-3.53,-9.69,1.14,10.37
0.0,0.0,1596,-3.53,-9.73,1.02,10.4
0.0,0.0,1598,-3.53,-9.65,1.18,10.34
0.0,0.0,1597,-3.53,-9.69,1.18,10.38
0.0,0.0,1612,-3.53,-9.61,1.14,10.3
0.0,0.0,1581,-3.57,-9.73,1.14,10.42
0.0,0.0,1599,-3.53,-9.65,1.1,10.33
0.0,0.0,1600,-3.53,-9.69,1.18,10.38
0.0,0.0,1599,-3.69,-9.53,1.22,10.29
0.0,0.0,1587,-3.49,-9.73,1.02,10.39
0.0,0.0,1590,-3.57,-9.61,1.18,10.32
0.0,0.0,1591,-3.61,-9.65,1.18,10.37
0.0,0.0,1595,-3.61,-9.69,1.14,10.4
0.0,0.0,1591,-3.57,-9.73,1.1,10.42
0.0,0.0,1588,-3.49,-9.65,1.22,10.33
0.0,0.0,1600,-3.57,-9.65,1.18,10.36
0.0,0.0,1588,-3.53,-9.65,1.18,10.34
0.0,0.0,1597,-3.49,-9.69,1.18,10.37
0.0,0.0,1596,-3.53,-9.65,1.1,10.33
0.0,0.0,1595,-3.41,-9.69,1.18,10.34
0.0,0.0,1584,-3.53,-9.73,1.06,10.4
0.0,0.0,1595,-3.57,-9.65,1.14,10.35
0.0,0.0,1622,-3.53,-9.57,1.18,10.27
0.0,0.0,1569,-3.61,-9.57,1.14,10.29
0.0,0.0,1591,-3.53,-9.69,1.18,10.38
0.0,0.0,1595,-3.61,-9.69,1.1,10.4
0.0,0.0,1595,-3.49,-9.65,1.22,10.33
0.0,0.0,1602,-3.53,-9.61,1.26,10.32
0.0,0.0,1599,-3.49,-9.65,1.26,10.34
0.0,0.0,1589,-3.53,-9.77,1.14,10.45
0.0,0.0,1581,-3.53,-9.69,1.06,10.37
0.0,0.0,1599,-3.57,-9.65,1.18,10.36
0.0,0.0,1590,-3.57,-9.61,1.18,10.32
0.0,0.0,1599,-3.61,-9.57,1.18,10.3
0.0,0.0,1594,-3.57,-9.65,1.14,10.35
0.0,0.0,1603,-3.53,-9.65,1.06,10.33
0.0,0.0,1589,-3.61,-9.65,1.1,10.36
0.0,0.0,1594,-3.57,-9.69,1.22,10.4
0.0,0.0,1599,-3.57,-9.65,1.14,10.35
0.0,0.0,1593,-3.57,-9.65,1.14,10.35
0.0,0.0,1618,-3.53,-9.65,1.14,10.34
0.0,0.0,1597,-3.53,-9.61,1.18,10.31
0.0,0.0,1600,-3.53,-9.69,1.1,10.37
0.0,0.0,1595,-3.53,-9.57,1.26,10.28
0.0,0.0,1606,-3.57,-9.65,1.18,10.36
0.0,0.0,1615,-3.57,-9.77,1.06,10.45
0.0,0.0,1584,-3.57,-9.73,1.18,10.43
0.0,0.0,1601,-3.57,-9.69,1.06,10.38
0.0,0.0,1599,-3.57,-9.65,1.22,10.36
0.0,0.0,1597,-3.57,-9.65,1.14,10.35
0.0,0.0,1620,-3.53,-9.65,1.1,10.33
0.0,0.0,1590,-3.45,-9.69,1.26,10.36
0.0,0.0,1594,-3.57,-9.65,1.18,10.36
0.0,0.0,1598,-3.53,-9.77,1.1,10.44
0.0,0.0,1601,-3.61,-9.69,1.06,10.39
0.0,0.0,1597,-3.49,-9.69,1.02,10.35
0.0,0.0,1597,-3.53,-9.65,1.14,10.34
0.0,0.0,1604,-3.57,-9.65,1.22,10.36
0.0,0.0,1597,-3.53,-9.61,1.1,10.3
0.0,0.0,1597,-3.61,-9.77,0.98,10.46
0.0,0.0,1601,-3.57,-9.65,1.1,10.35
0.0,0.0,1594,-3.53,-9.61,1.22,10.31
0.0,0.0,1595,-3.53,-9.73,1.14,10.41
0.0,0.0,1592,-3.57,-9.57,1.22,10.29
0.0,0.0,1613,-3.57,-9.61,1.14,10.31
0.0,0.0,1597,-3.53,-9.65,1.1,10.33
0.0,0.0,1604,-3.57,-9.53,1.22,10.25
0.0,0.0,1588,-3.57,-9.65,1.14,10.35
0.0,0.0,1601,-3.53,-9.73,1.14,10.41
0.0,0.0,1599,-3.57,-9.57,1.18,10.28
0.0,0.0,1613,-3.57,-9.69,1.1,10.38
0.0,0.0,1592,-3.57,-9.65,1.14,10.35
0.0,0.0,1596,-3.53,-9.65,1.14,10.34
0.0,0.0,1586,-3.53,-9.69,1.22,10.38
0.0,0.0,1607,-3.53,-9.69,1.18,10.38
0.0,0.0,1598,-3.53,-9.65,1.22,10.35
0.0,0.0,1621,-3.53,-9.65,1.14,10.34
0.0,0.0,1587,-3.57,-9.65,1.1,10.35
0.0,0.0,1596,-3.49,-9.65,1.18,10.33
0.0,0.0,1599,-3.57,-9.57,1.14,10.28
0.0,0.0,1592,-3.57,-9.69,1.14,10.39
0.0,0.0,1588,-3.53,-9.61,1.18,10.31
0.0,0.0,1597,-3.61,-9.69,1.14,10.4
0.0,0.0,1596,-3.53,-9.69,1.1,10.37
0.0,0.0,1597,-3.53,-9.65,1.18,10.34
0.0,0.0,1602,-3.49,-9.69,1.1,10.36
0.0,0.0,1599,-3.57,-9.69,1.1,10.38
0.0,0.0,1613,-3.57,-9.65,1.1,10.35
0.0,0.0,1585,-3.53,-9.61,1.18,10.31
0.0,0.0,1581,-3.53,-9.65,1.14,10.34
0.0,0.0,1601,-3.57,-9.69,1.02,10.38
0.0,0.0,1602,-3.57,-9.61,1.22,10.32
0.0,0.0,1601,-3.65,-9.69,1.06,10.41
0.0,0.0,1598,-3.61,-9.61,1.14,10.33
0.0,0.0,1595,-3.57,-9.65,1.18,10.36
0.0,0.0,1602,-3.57,-9.65,1.06,10.34
0.0,0.0,1597,-3.57,-9.61,1.22,10.32
0.0,0.0,1605,-3.53,-9.61,1.1,10.3
0.0,0.0,1593,-3.57,-9.65,1.18,10.36
0.0,0.0,1594,-3.53,-9.61,1.18,10.31
0.0,0.0,1591,-3.57,-9.69,1.14,10.39
0.0,0.0,1576,-3.53,-9.69,1.18,10.38
0.0,0.0,1599,-3.53,-9.69,1.18,10.38
0.0,0.0,1598,-3.57,-9.65,1.14,10.35
0.0,0.0,1600,-3.57,-9.69,1.1,10.38
0.0,0.0,1619,-3.53,-9.65,1.22,10.35
0.0,0.0,1601,-3.53,-9.65,1.18,10.34
0.0,0.0,1585,-3.57,-9.57,1.18,10.28
0.0,0.0,1601,-3.53,-9.69,1.14,10.37
0.0,0.0,1596,-3.57,-9.69,1.1,10.38
0.0,0.0,1595,-3.53,-9.57,1.18,10.27
0.0,0.0,1593,-3.57,-9.65,1.14,10.35
0.0,0.0,1591,-3.57,-9.65,1.18,10.36
0.0,0.0,1600,-3.53,-9.69,1.14,10.37
0.0,0.0,1600,-3.53,-9.65,1.18,10.34
0.0,0.0,1602,-3.57,-9.61,1.1,10.31
0.0,0.0,1591,-3.53,-9.65,1.14,10.34
0.0,0.0,1588,-3.57,-9.61,1.1,10.31
0.0,0.0,1598,-3.57,-9.69,1.22,10.4
0.0,0.0,1596,-3.57,-9.61,1.22,10.32
0.0,0.0,1597,-3.57,-9.69,1.22,10.4
0.0,0.0,1598,-3.49,-9.61,1.14,10.29
0.0,0.0,1623,-3.57,-9.65,1.1,10.35
0.0,0.0,1598,-3.57,-9.69,1.14,10.39
0.0,0.0,1599,-3.53,-9.65,1.14,10.34
0.0,0.0,1593,-3.61,-9.65,1.14,10.37
0.0,0.0,1593,-3.57,-9.65,1.14,10.35
0.0,0.0,1599,-3.49,-9.65,1.37,10.35
0.0,0.0,1622,-3.49,-9.73,1.14,10.4
0.0,0.0,1597,-3.57,-9.57,1.18,10.28
0.0,0.0,1578,-3.53,-9.69,1.14,10.37
0.0,0.0,1593,-3.53,-9.69,1.1,10.37
0.0,0.0,1597,-3.57,-9.61,1.14,10.31
0.0,0.0,1616,-3.53,-9.69,1.22,10.38
0.0,0.0,1590,-3.53,-9.69,1.22,10.38
0.0,0.0,1594,-3.57,-9.61,1.14,10.31
0.0,0.0,1606,-3.57,-9.65,1.1,10.35
0.0,0.0,1598,-3.53,-9.69,1.14,10.37
0.0,0.0,1589,-3.57,-9.65,1.1,10.35
0.0,0.0,1596,-3.57,-9.61,1.14,10.31
0.0,0.0,1592,-3.57,-9.65,1.22,10.36
0.0,0.0,1603,-3.53,-9.69,1.1,10.37
0.0,0.0,1585,-3.57,-9.61,1.18,10.32
0.0,0.0,1596,-3.57,-9.65,1.18,10.36
0.0,0.0,1606,-3.57,-9.65,1.18,10.36
0.0,0.0,1618,-3.57,-9.65,1.18,10.36
0.0,0.0,1587,-3.57,-9.65,1.14,10.35
0.0,0.0,1581,-3.53,-9.69,1.14,10.37
0.0,0.0,1597,-3.49,-9.65,1.18,10.33
0.0,0.0,1603,-3.57,-9.65,1.1,10.35
0.0,0.0,1597,-3.57,-9.61,1.14,10.31
0.0,0.0,1604,-3.53,-9.61,1.18,10.31
0.0,0.0,1579,-3.57,-9.65,1.14,10.35
0.0,0.0,1598,-3.57,-9.65,1.14,10.35
0.0,0.0,1597,-3.49,-9.57,1.18,10.26
0.0,0.0,1603,-3.57,-9.57,1.1,10.27
0.0,0.0,1594,-3.53,-9.73,1.1,10.41
0.0,0.0,1598,-3.61,-9.73,1.02,10.43
0.0,0.0,1621,-3.57,-9.77,1.1,10.46
0.0,0.0,1611,-3.53,-9.73,1.14,10.41
0.0,0.0,1611,-3.57,-9.69,1.18,10.39
0.0,0.0,1608,-3.57,-9.69,1.18,10.39
0.0,0.0,1609,-3.61,-9.65,1.22,10.37
0.0,0.0,1633,-3.57,-9.69,1.02,10.38
0.0,0.0,1596,-3.53,-9.65,1.14,10.34
0.0,0.0,1589,-3.53,-9.65,1.14,10.34
0.0,0.0,1611,-3.57,-9.57,1.22,10.29
0.0,0.0,1606,-3.53,-9.65,1.14,10.34
0.0,0.0,1614,-3.61,-9.61,1.14,10.33
0.0,0.0,1605,-3.53,-9.65,1.26,10.35
0.0,0.0,1616,-3.49,-9.61,1.18,10.29
0.0,0.0,1614,-3.53,-9.65,1.18,10.34
0.0,0.0,1614,-3.57,-9.69,1.18,10.39
0.0,0.0,1613,-3.53,-9.65,1.14,10.34
0.0,0.0,1591,-3.53,-9.65,1.14,10.34
0.0,0.0,1606,-3.57,-9.61,1.18,10.32
0.0,0.0,1611,-3.57,-9.61,1.1,10.31
0.0,0.0,1606,-3.57,-9.65,1.14,10.35
0.0,0.0,1608,-3.53,-9.65,1.14,10.34
0.0,0.0,1603,-3.61,-9.61,1.18,10.33
0.0,0.0,1629,-3.57,-9.65,1.1,10.35
0.0,0.0,1638,-3.57,-9.69,1.14,10.39
0.0,0.0,1610,-3.53,-9.65,1.14,10.34
0.0,0.0,1610,-3.53,-9.65,1.14,10.34
0.0,0.0,1606,-3.57,-9.61,1.14,10.31
0.0,0.0,1630,-3.53,-9.65,1.18,10.34
0.0,0.0,1611,-3.57,-9.65,1.14,10.35
0.0,0.0,1609,-3.57,-9.65,1.14,10.35
0.0,0.0,1606,-3.57,-9.65,1.1,10.35
0.0,0.0,1599,-3.57,-9.69,1.18,10.39
0.0,0.0,1609,-3.61,-9.65,1.14,10.37
0.0,0.0,1636,-3.57,-9.69,1.18,10.39
0.0,0.0,1612,-3.53,-9.65,1.18,10.34
0.0,0.0,1605,-3.53,-9.69,1.14,10.37
0.0,0.0,1611,-3.57,-9.69,1.1,10.38
0.0,0.0,1594,-3.57,-9.69,1.22,10.4
0.0,0.0,1608,-3.61,-9.65,1.14,10.37
0.0,0.0,1607,-3.53,-9.69,1.14,10.37
0.0,0.0,1630,-3.57,-9.65,1.22,10.36
0.0,0.0,1616,-3.53,-9.65,1.14,10.34
0.0,0.0,1603,-3.65,-9.65,1.18,10.38
0.0,0.0,1610,-3.49,-9.69,1.14,10.36
0.0,0.0,1608,-3.57,-9.65,1.14,10.35
0.0,0.0,1605,-3.57,-9.65,1.18,10.36
0.0,0.0,1612,-3.57,-9.69,1.14,10.39
0.0,0.0,1614,-3.57,-9.61,1.18,10.32
0.0,0.0,1603,-3.57,-9.69,1.1,10.38
0.0,0.0,1611,-3.61,-9.69,1.22,10.41
0.0,0.0,1612,-3.53,-9.65,1.14,10.34
0.0,0.0,1623,-3.53,-9.61,1.14,10.3
0.0,0.0,1616,-3.53,-9.61,1.18,10.31
0.0,0.0,1613,-3.61,-9.61,1.18,10.33
0.0,0.0,1608,-3.53,-9.69,1.18,10.38
0.0,0.0,1614,-3.41,-9.61,1.18,10.27
0.0,0.0,1604,-3.57,-9.65,1.18,10.36
0.0,0.0,1582,-3.53,-9.69,1.22,10.38
0.0,0.0,1607,-3.57,-9.65,1.1,10.35
0.0,0.0,1611,-3.57,-9.69,1.14,10.39
0.0,0.0,1610,-3.53,-9.61,1.14,10.3
0.0,0.0,1616,-3.53,-9.73,1.14,10.41
0.0,0.0,1603,-3.57,-9.65,1.18,10.36
0.0,0.0,1609,-3.57,-9.69,1.18,10.39
0.0,0.0,1614,-3.57,-9.69,1.18,10.39
0.0,0.0,1609,-3.49,-9.65,1.14,10.32
0.0,0.0,1604,-3.57,-9.65,1.14,10.35
0.0,0.0,1611,-3.57,-9.69,1.14,10.39
0.0,0.0,1633,-3.53,-9.69,1.14,10.37
0.0,0.0,1608,-3.57,-9.61,1.14,10.31
0.0,0.0,1596,-3.53,-9.61,1.14,10.3
0.0,0.0,1602,-3.57,-9.61,1.1,10.31
0.0,0.0,1604,-3.53,-9.65,1.18,10.34
0.0,0.0,1607,-3.57,-9.65,1.14,10.35
0.0,0.0,1606,-3.57,-9.61,1.14,10.31
0.0,0.0,1607,-3.53,-9.65,1.18,10.34
0.0,0.0,1606,-3.61,-9.65,1.18,10.37
0.0,0.0,1607,-3.45,-9.61,1.14,10.27
0.0,0.0,1601,-3.57,-9.69,1.14,10.39
0.0,0.0,1611,-3.61,-9.73,1.14,10.44
0.0,0.0,1633,-3.53,-9.65,1.22,10.35
0.0,0.0,1608,-3.53,-9.65,1.1,10.33
0.0,0.0,1620,-3.53,-9.65,1.18,10.34
0.0,0.0,1614,-3.57,-9.61,1.14,10.31
0.0,0.0,1606,-3.57,-9.69,1.14,10.39
0.0,0.0,1607,-3.61,-9.69,1.26,10.42
0.0,0.0,1631,-3.57,-9.69,1.18,10.39
0.0,0.0,1607,-3.57,-9.69,1.1,10.38
0.0,0.0,1605,-3.57,-9.69,1.18,10.39
0.0,0.0,1610,-3.53,-9.65,1.1,10.33
0.0,0.0,1617,-3.53,-9.69,1.18,10.38
0.0,0.0,1611,-3.57,-9.61,1.14,10.31
0.0,0.0,1623,-3.53,-9.57,1.22,10.27
0.0,0.0,1611,-3.61,-9.61,1.14,10.33
0.0,0.0,1618,-3.53,-9.69,1.14,10.37
0.0,0.0,1633,-3.57,-9.69,1.18,10.39
0.0,0.0,1618,-3.57,-9.69,1.22,10.4
0.0,0.0,1630,-3.53,-9.65,1.14,10.34
0.0,0.0,1609,-3.57,-9.69,1.06,10.38
0.0,0.0,1620,-3.53,-9.69,1.18,10.38
0.0,0.0,1607,-3.57,-9.65,1.14,10.35
0.0,0.0,1614,-3.57,-9.65,1.14,10.35
0.0,0.0,1611,-3.57,-9.65,1.18,10.36
0.0,0.0,1618,-3.57,-9.65,1.14,10.35
0.0,0.0,1609,-3.61,-9.65,1.22,10.37
0.0,0.0,1613,-3.61,-9.61,1.14,10.33
0.0,0.0,1617,-3.57,-9.65,1.14,10.35
0.0,0.0,1644,-3.53,-9.69,1.14,10.37
0.0,0.0,1618,-3.57,-9.61,1.18,10.32
0.0,0.0,1621,-3.61,-9.65,1.14,10.37
0.0,0.0,1615,-3.57,-9.61,1.14,10.31
0.0,0.0,1616,-3.53,-9.65,1.1,10.33
0.0,0.0,1628,-3.61,-9.61,1.22,10.34
0.0,0.0,1614,-3.57,-9.65,1.14,10.35
0.0,0.0,1627,-3.57,-9.69,1.1,10.38
0.0,0.0,1618,-3.61,-9.61,1.18,10.33
0.0,0.0,1630,-3.53,-9.61,1.22,10.31
0.0,0.0,1614,-3.57,-9.65,1.1,10.35
0.0,0.0,1604,-3.53,-9.65,1.1,10.33
0.0,0.0,1612,-3.57,-9.69,1.06,10.38
0.0,0.0,1614,-3.57,-9.65,1.18,10.36
0.0,0.0,1614,-3.53,-9.65,1.14,10.34
0.0,0.0,1604,-3.53,-9.65,1.14,10.34
0.0,0.0,1615,-3.57,-9.61,1.18,10.32
0.0,0.0,1607,-3.57,-9.65,1.06,10.34
0.0,0.0,1597,-3.61,-9.65,1.18,10.37
0.0,0.0,1611,-3.57,-9.65,1.14,10.35
0.0,0.0,1605,-3.57,-9.65,1.22,10.36
0.0,0.0,1631,-3.57,-9.65,1.18,10.36
0.0,0.0,1623,-3.57,-9.69,1.22,10.4
0.0,0.0,1620,-3.57,-9.61,1.14,10.31
0.0,0.0,1621,-3.57,-9.65,1.14,10.35
0.0,0.0,1613,-3.53,-9.65,1.22,10.35
0.0,0.0,1615,-3.61,-9.57,1.1,10.29
0.0,0.0,1615,-3.57,-9.65,1.14,10.35
0.0,0.0,1610,-3.57,-9.65,1.14,10.35
0.0,0.0,1610,-3.53,-9.65,1.18,10.34
0.0,0.0,1619,-3.57,-9.65,1.18,10.36
0.0,0.0,1615,-3.57,-9.65,1.18,10.36
0.0,0.0,1628,-3.57,-9.65,1.22,10.36
0.0,0.0,1615,-3.53,-9.69,1.14,10.37
0.0,0.0,1613,-3.57,-9.65,1.26,10.37
0.0,0.0,1614,-3.57,-9.57,1.14,10.28
0.0,0.0,1602,-3.57,-9.61,1.18,10.32
0.0,0.0,1605,-3.53,-9.65,1.14,10.34
0.0,0.0,1633,-3.61,-9.61,1.22,10.34
0.0,0.0,1611,-3.53,-9.69,1.18,10.38
0.0,0.0,1611,-3.57,-9.65,1.1,10.35
0.0,0.0,1615,-3.57,-9.65,1.18,10.36
0.0,0.0,1615,-3.57,-9.65,1.18,10.36
0.0,0.0,1641,-3.45,-9.69,1.1,10.34
0.0,0.0,1612,-3.57,-9.65,1.14,10.35
0.0,0.0,1583,-3.57,-9.69,1.14,10.39
0.0,0.0,1615,-3.57,-9.65,1.18,10.36
0.0,0.0,1619,-3.57,-9.65,1.14,10.35
0.0,0.0,1609,-3.53,-9.57,1.18,10.27
0.0,0.0,1630,-3.61,-9.45,1.14,10.18
0.0,0.0,1643,-3.53,-9.77,1.1,10.44
0.0,0.0,1605,-3.61,-9.69,1.14,10.4
0.0,0.0,1596,-3.53,-9.65,1.06,10.33
0.0,0.0,1616,-3.53,-9.73,1.14,10.41
0.0,0.0,1614,-3.57,-9.65,1.14,10.35
0.0,0.0,1637,-3.57,-9.65,1.18,10.36
0.0,0.0,1616,-3.57,-9.65,1.18,10.36
0.0,0.0,1614,-3.53,-9.69,1.14,10.37
0.0,0.0,1614,-3.61,-9.65,1.14,10.37
0.0,0.0,1605,-3.57,-9.69,1.14,10.39
0.0,0.0,1634,-3.61,-9.69,1.18,10.41
0.0,0.0,1616,-3.53,-9.65,1.22,10.35
0.0,0.0,1638,-3.53,-9.65,1.22,10.35
0.0,0.0,1616,-3.53,-9.65,1.18,10.34
0.0,0.0,1615,-3.57,-9.65,1.18,10.36
0.0,0.0,1612,-3.61,-9.65,1.14,10.37
0.0,0.0,1634,-3.84,-9.53,1.29,10.36
0.0,0.0,1640,-3.8,-9.53,1.26,10.34
0.0,0.0,1630,-3.77,-9.57,1.26,10.36
0.0,0.0,1631,-3.8,-9.53,1.29,10.34
0.0,0.0,1656,-3.84,-9.53,1.29,10.36
0.0,0.0,1626,-3.77,-9.53,1.37,10.34
0.0,0.0,1630,-3.8,-9.49,1.37,10.32
0.0,0.0,1629,-3.8,-9.57,1.33,10.39
0.0,0.0,1633,-3.77,-9.57,1.37,10.38
0.0,0.0,1629,-3.8,-9.57,1.33,10.39
0.0,0.0,1633,-3.77,-9.53,1.22,10.32
0.0,0.0,1628,-3.8,-9.57,1.29,10.38
0.0,0.0,1631,-3.8,-9.53,1.29,10.34
0.0,0.0,1629,-3.77,-9.65,1.33,10.44
0.0,0.0,1638,-3.84,-9.57,1.29,10.4
0.0,0.0,1630,-3.84,-9.57,1.26,10.39
0.0,0.0,1632,-3.8,-9.53,1.33,10.35
0.0,0.0,1630,-3.8,-9.49,1.29,10.31
0.0,0.0,1631,-3.77,-9.57,1.22,10.36
0.0,0.0,1633,-3.8,-9.57,1.22,10.37
0.0,0.0,1629,-3.8,-9.57,1.29,10.38
0.0,0.0,1650,-3.8,-9.53,1.26,10.34
0.0,0.0,1640,-3.8,-9.57,1.22,10.37
0.0,0.0,1605,-3.8,-9.61,1.33,10.42
0.0,0.0,1637,-3.8,-9.53,1.29,10.34
0.0,0.0,1628,-3.8,-9.57,1.29,10.38
0.0,0.0,1631,-3.73,-9.41,1.22,10.2
0.0,0.0,1643,-3.8,-9.61,1.33,10.42
0.0,0.0,1630,-3.77,-9.57,1.29,10.37
0.0,0.0,1631,-3.84,-9.53,1.33,10.36
0.0,0.0,1636,-3.8,-9.49,1.26,10.3
0.0,0.0,1644,-3.8,-9.53,1.29,10.34
0.0,0.0,1626,-3.8,-9.53,1.33,10.35
0.0,0.0,1629,-3.77,-9.57,1.26,10.36
0.0,0.0,1629,-3.77,-9.57,1.26,10.36
0.0,0.0,1631,-3.8,-9.61,1.33,10.42
0.0,0.0,1622,-3.77,-9.61,1.26,10.4
0.0,0.0,1633,-3.77,-9.53,1.29,10.33
0.0,0.0,1638,-3.8,-9.53,1.29,10.34
0.0,0.0,1615,-3.77,-9.57,1.29,10.37
0.0,0.0,1637,-3.8,-9.49,1.33,10.31
0.0,0.0,1663,-3.8,-9.53,1.29,10.34
0.0,0.0,1612,-3.77,-9.53,1.26,10.33
0.0,0.0,1633,-3.8,-9.53,1.29,10.34
0.0,0.0,1637,-3.8,-9.57,1.29,10.38
0.0,0.0,1632,-3.69,-9.57,1.26,10.33
0.0,0.0,1634,-3.88,-9.45,1.37,10.31
0.0,0.0,1641,-3.8,-9.57,1.29,10.38
0.0,0.0,1638,-3.77,-9.53,1.18,10.32
0.0,0.0,1641,-3.88,-9.53,1.29,10.37
0.0,0.0,1646,-3.73,-9.65,1.45,10.45
0.0,0.0,1641,-3.77,-9.53,1.45,10.35
0.0,0.0,1648,-3.84,-9.53,1.45,10.38
0.0,0.0,1631,-3.8,-9.53,1.37,10.35
0.0,0.0,1646,-3.84,-9.57,1.41,10.41
0.0,0.0,1651,-3.77,-9.57,1.41,10.38
0.0,0.0,1648,-3.84,-9.53,1.37,10.37
0.0,0.0,1645,-3.84,-9.53,1.41,10.37
0.0,0.0,1641,-3.77,-9.57,1.41,10.38
0.0,0.0,1645,-3.8,-9.49,1.41,10.32
0.0,0.0,1642,-3.77,-9.53,1.37,10.34
0.0,0.0,1645,-3.73,-9.53,1.41,10.33
0.0,0.0,1664,-3.73,-9.45,1.49,10.27
0.0,0.0,1634,-3.73,-9.61,1.37,10.4
0.0,0.0,1639,-3.77,-9.61,1.41,10.42
0.0,0.0,1641,-3.77,-9.57,1.37,10.38
0.0,0.0,1634,-3.69,-9.53,1.45,10.32
0.0,0.0,1635,-3.8,-9.61,1.37,10.43
0.0,0.0,1637,-3.77,-9.45,1.45,10.28
0.0,0.0,1633,-3.84,-9.57,1.26,10.39
0.0,0.0,1661,-3.77,-9.53,1.33,10.34
0.0,0.0,1646,-3.8,-9.49,1.41,10.32
0.0,0.0,1635,-3.84,-9.3,1.53,10.18
0.0,0.0,1617,-3.84,-9.49,1.33,10.33
0.0,0.0,1663,-3.77,-9.49,1.49,10.32
0.0,0.0,1638,-3.84,-9.49,1.33,10.33
0.0,0.0,1636,-3.84,-9.53,1.41,10.37
0.0,0.0,1637,-3.84,-9.57,1.29,10.4
0.0,0.0,1629,-3.8,-9.57,1.33,10.39
0.0,0.0,1635,-3.77,-9.57,1.37,10.38
0.0,0.0,1633,-3.73,-9.61,1.33,10.39
0.0,0.0,1632,-3.84,-9.53,1.33,10.36
0.0,0.0,1651,-3.77,-9.57,1.33,10.37
0.0,0.0,1630,-3.77,-9.61,1.29,10.4
0.0,0.0,1630,-3.8,-9.53,1.33,10.35
0.0,0.0,1638,-3.8,-9.57,1.37,10.39
0.0,0.0,1632,-3.77,-9.57,1.37,10.38
0.0,0.0,1663,-3.77,-9.65,1.26,10.43
0.0,0.0,1636,-3.77,-9.61,1.33,10.41
0.0,0.0,1627,-3.77,-9.53,1.33,10.34
0.0,0.0,1636,-3.77,-9.57,1.37,10.38
0.0,0.0,1633,-3.77,-9.61,1.37,10.41
0.0,0.0,1632,-3.8,-9.53,1.33,10.35
0.0,0.0,1619,-3.77,-9.61,1.33,10.41
0.0,0.0,1632,-3.77,-9.57,1.33,10.37
0.0,0.0,1635,-3.8,-9.57,1.29,10.38
0.0,0.0,1634,-3.8,-9.57,1.29,10.38
0.0,0.0,1632,-3.77,-9.53,1.29,10.33
0.0,0.0,1640,-3.8,-9.53,1.37,10.35
0.0,0.0,1649,-3.77,-9.57,1.26,10.36
0.0,0.0,1636,-3.73,-9.53,1.33,10.32
0.0,0.0,1635,-3.8,-9.57,1.37,10.39
0.0,0.0,1658,-3.77,-9.57,1.33,10.37
0.0,0.0,1634,-3.8,-9.57,1.37,10.39
0.0,0.0,1630,-3.77,-9.53,1.33,10.34
0.0,0.0,1632,-3.8,-9.57,1.37,10.39
0.0,0.0,1630,-3.73,-9.45,1.26,10.24
0.0,0.0,1636,-3.8,-9.53,1.29,10.34
0.0,0.0,1636,-3.8,-9.53,1.29,10.34
0.0,0.0,1634,-3.8,-9.49,1.37,10.32
0.0,0.0,1637,-3.77,-9.61,1.33,10.41
0.0,0.0,1653,-3.77,-9.49,1.37,10.3
0.0,0.0,1618,-3.73,-9.65,1.29,10.42
0.0,0.0,1598,-3.77,-9.57,1.26,10.36
0.0,0.0,1618,-3.77,-9.57,1.29,10.37
0.0,0.0,1627,-3.77,-9.53,1.26,10.33
0.0,0.0,1632,-3.73,-9.53,1.41,10.33
0.0,0.0,1638,-3.77,-9.57,1.29,10.37
0.0,0.0,1610,-3.8,-9.49,1.37,10.32
0.0,0.0,1606,-3.8,-9.57,1.37,10.39
0.0,0.0,1622,-3.8,-9.61,1.26,10.41
0.0,0.0,1640,-3.73,-9.61,1.29,10.39
0.0,0.0,1636,-3.77,-9.57,1.29,10.37
0.0,0.0,1656,-3.77,-9.53,1.29,10.33
0.0,0.0,1649,-3.73,-9.61,1.26,10.38
0.0,0.0,1629,-3.77,-9.61,1.26,10.4
0.0,0.0,1633,-3.73,-9.53,1.33,10.32
0.0,0.0,1624,-3.77,-9.53,1.33,10.34
0.0,0.0,1636,-3.77,-9.61,1.29,10.4
0.0,0.0,1647,-3.77,-9.57,1.22,10.36
0.0,0.0,1612,-3.73,-9.61,1.26,10.38
0.0,0.0,1619,-3.77,-9.57,1.33,10.37
0.0,0.0,1626,-3.8,-9.53,1.33,10.35
0.0,0.0,1652,-3.65,-9.53,1.37,10.3
0.0,0.0,1623,-3.77,-9.57,1.33,10.37
0.0,0.0,1607,-3.77,-9.57,1.37,10.38
0.0,0.0,1631,-3.77,-9.61,1.26,10.4
0.0,0.0,1625,-3.84,-9.57,1.29,10.4
0.0,0.0,1628,-3.77,-9.57,1.33,10.37
0.0,0.0,1626,-3.77,-9.57,1.29,10.37
0.0,0.0,1617,-3.8,-9.57,1.33,10.39
0.0,0.0,1632,-3.88,-9.53,1.49,10.4
0.0,0.0,1609,-3.77,-9.53,1.26,10.33
0.0,0.0,1623,-3.8,-9.57,1.26,10.38
0.0,0.0,1630,-3.77,-9.53,1.33,10.34
0.0,0.0,1642,-3.77,-9.57,1.29,10.37
0.0,0.0,1616,-3.77,-9.61,1.33,10.41
0.0,0.0,1630,-3.8,-9.61,1.33,10.42
0.0,0.0,1625,-3.77,-9.57,1.22,10.36
0.0,0.0,1626,-3.84,-9.57,1.29,10.4
0.0,0.0,1624,-3.8,-9.53,1.26,10.34
0.0,0.0,1624,-3.8,-9.53,1.29,10.34
0.0,0.0,1620,-3.84,-9.57,1.33,10.4
0.0,0.0,1648,-3.77,-9.57,1.33,10.37
0.0,0.0,1637,-3.77,-9.61,1.29,10.4
0.0,0.0,1622,-3.8,-9.53,1.26,10.34
0.0,0.0,1627,-3.77,-9.57,1.26,10.36
0.0,0.0,1610,-3.8,-9.61,1.33,10.42
0.0,0.0,1608,-3.84,-9.53,1.37,10.37
0.0,0.0,1623,-3.84,-9.57,1.26,10.39
0.0,0.0,1628,-3.8,-9.57,1.29,10.38
0.0,0.0,1632,-3.8,-9.61,1.22,10.41
0.0,0.0,1615,-3.77,-9.57,1.22,10.36
0.0,0.0,1634,-3.77,-9.53,1.33,10.34
0.0,0.0,1616,-3.65,-9.49,1.29,10.25
0.0,0.0,1625,-3.8,-9.57,1.33,10.39
0.0,0.0,1623,-3.8,-9.57,1.33,10.39
0.0,0.0,1621,-3.8,-9.57,1.33,10.39
0.0,0.0,1596,-3.73,-9.53,1.33,10.32
0.0,0.0,1626,-3.8,-9.57,1.26,10.38
0.0,0.0,1634,-3.77,-9.49,1.33,10.3
0.0,0.0,1633,-3.77,-9.57,1.22,10.36
0.0,0.0,1622,-3.8,-9.53,1.37,10.35
0.0,0.0,1642,-3.77,-9.57,1.29,10.37
0.0,0.0,1621,-3.8,-9.57,1.33,10.39
0.0,0.0,1624,-3.77,-9.49,1.33,10.3
0.0,0.0,1622,-3.77,-9.61,1.29,10.4
0.0,0.0,1619,-3.73,-9.57,1.29,10.35
0.0,0.0,1614,-3.65,-9.61,1.33,10.37
0.0,0.0,1624,-3.84,-9.57,1.22,10.39
0.0,0.0,1625,-3.8,-9.57,1.29,10.38
0.0,0.0,1625,-3.84,-9.49,1.41,10.34
0.0,0.0,1624,-3.73,-9.53,1.29,10.32
0.0,0.0,1621,-3.8,-9.57,1.29,10.38
0.0,0.0,1627,-3.77,-9.53,1.33,10.34
0.0,0.0,1656,-3.8,-9.61,1.33,10.42
0.0,0.0,1623,-3.77,-9.61,1.29,10.4
0.0,0.0,1624,-3.8,-9.57,1.33,10.39
0.0,0.0,1619,-3.77,-9.77,1.22,10.54
0.0,0.0,1620,-3.84,-9.53,1.22,10.35
0.0,0.0,1622,-3.8,-9.57,1.26,10.38
0.0,0.0,1632,-3.8,-9.45,1.29,10.27
0.0,0.0,1617,-3.77,-9.49,1.29,10.29
0.0,0.0,1614,-3.84,-9.53,1.26,10.35
0.0,0.0,1629,-3.8,-9.57,1.29,10.38
0.0,0.0,1626,-3.8,-9.53,1.33,10.35
0.0,0.0,1629,-3.77,-9.53,1.33,10.34
0.0,0.0,1625,-3.8,-9.57,1.33,10.39
0.0,0.0,1626,-3.8,-9.53,1.29,10.34
0.0,0.0,1627,-3.73,-9.61,1.29,10.39
0.0,0.0,1629,-3.73,-9.57,1.29,10.35
0.0,0.0,1622,-3.77,-9.49,1.33,10.3
0.0,0.0,1626,-3.88,-9.49,1.26,10.33
0.0,0.0,1627,-3.73,-9.57,1.37,10.36
0.0,0.0,1634,-3.8,-9.57,1.29,10.38
0.0,0.0,1627,-3.73,-9.49,1.29,10.28
0.0,0.0,1621,-3.84,-9.69,1.37,10.51
0.0,0.0,1626,-3.8,-9.53,1.37,10.35
0.0,0.0,1634,-3.8,-9.53,1.26,10.34
0.0,0.0,1618,-3.8,-9.57,1.33,10.39
0.0,0.0,1645,-3.8,-9.57,1.33,10.39
0.0,0.0,1620,-3.77,-9.57,1.29,10.37
0.0,0.0,1616,-3.8,-9.53,1.26,10.34
0.0,0.0,1604,-3.77,-9.57,1.22,10.36
0.0,0.0,1635,-3.77,-9.57,1.33,10.37
0.0,0.0,1623,-3.8,-9.53,1.33,10.35
0.0,0.0,1629,-3.77,-9.53,1.33,10.34
0.0,0.0,1626,-3.8,-9.53,1.29,10.34
0.0,0.0,1654,-3.77,-9.57,1.29,10.37
0.0,0.0,1627,-3.73,-9.57,1.29,10.35
0.0,0.0,1622,-3.77,-9.53,1.29,10.33
0.0,0.0,1631,-3.8,-9.53,1.33,10.35
0.0,0.0,1627,-3.8,-9.53,1.33,10.35
0.0,0.0,1627,-3.8,-9.61,1.29,10.42
0.0,0.0,1622,-3.84,-9.57,1.29,10.4
0.0,0.0,1606,-3.77,-9.57,1.22,10.36
0.0,0.0,1630,-3.8,-9.57,1.22,10.37
0.0,0.0,1624,-3.8,-9.57,1.29,10.38
0.0,0.0,1631,-3.77,-9.53,1.29,10.33
0.0,0.0,1622,-3.8,-9.57,1.33,10.39
0.0,0.0,1645,-3.77,-9.53,1.37,10.34
0.0,0.0,1621,-3.77,-9.57,1.29,10.37
0.0,0.0,1621,-3.8,-9.53,1.26,10.34
0.0,0.0,1624,-3.77,-9.49,1.37,10.3
0.0,0.0,1637,-3.8,-9.57,1.22,10.37
0.0,0.0,1629,-3.73,-9.53,1.26,10.31
0.0,0.0,1621,-3.73,-9.57,1.29,10.35
0.0,0.0,1639,-3.8,-9.49,1.33,10.31
0.0,0.0,1620,-3.84,-9.53,1.37,10.37
0.0,0.0,1626,-3.73,-9.57,1.29,10.35
0.0,0.0,1631,-3.8,-9.57,1.33,10.39
0.0,0.0,1623,-3.8,-9.57,1.37,10.39
0.0,0.0,1624,-3.8,-9.57,1.26,10.38
0.0,0.0,1631,-3.77,-9.57,1.37,10.38
0.0,0.0,1625,-3.73,-9.45,1.33,10.25
0.0,0.0,1624,-3.77,-9.57,1.29,10.37
0.0,0.0,1625,-3.77,-9.57,1.26,10.36
0.0,0.0,1651,-3.77,-9.57,1.29,10.37
0.0,0.0,1633,-3.77,-9.57,1.33,10.37
0.0,0.0,1621,-3.8,-9.57,1.29,10.38
0.0,0.0,1625,-3.77,-9.61,1.26,10.4
0.0,0.0,1632,-3.84,-9.57,1.29,10.4
0.0,0.0,1629,-3.77,-9.57,1.29,10.37
0.0,0.0,1631,-3.8,-9.57,1.26,10.38
0.0,0.0,1623,-3.8,-9.57,1.26,10.38
0.0,0.0,1619,-3.77,-9.57,1.33,10.37
0.0,0.0,1634,-3.8,-9.49,1.41,10.32
0.0,0.0,1641,-3.77,-9.57,1.33,10.37
0.0,0.0,1627,-3.8,-9.45,1.53,10.3
0.0,0.0,1646,-3.73,-9.57,1.45,10.37
0.0,0.0,1664,-3.77,-9.57,1.45,10.39
0.0,0.0,1662,-3.73,-9.61,1.41,10.4
0.0,0.0,1658,-3.88,-9.65,1.26,10.48
0.0,0.0,1663,-3.8,-9.49,1.61,10.35
0.0,0.0,1676,-3.84,-9.65,1.14,10.45
0.0,0.0,1639,-3.8,-9.49,1.41,10.32
0.0,0.0,1644,-3.88,-9.53,1.37,10.38
0.0,0.0,1655,-3.77,-9.61,1.45,10.42
0.0,0.0,1651,-3.8,-9.57,1.41,10.4
0.0,0.0,1673,-3.8,-9.57,1.49,10.41
0.0,0.0,1652,-3.8,-9.53,1.45,10.37
0.0,0.0,1636,-3.84,-9.69,1.33,10.51
0.0,0.0,1661,-3.84,-9.61,1.41,10.45
0.0,0.0,1651,-3.77,-9.57,1.45,10.39
0.0,0.0,1658,-3.84,-9.61,1.37,10.44
0.0,0.0,1648,-3.8,-9.49,1.33,10.31
0.0,0.0,1653,-3.77,-9.49,1.61,10.34
0.0,0.0,1657,-3.84,-9.77,1.22,10.57
0.0,0.0,1666,-3.73,-9.61,1.37,10.4
0.0,0.0,1657,-3.84,-9.45,1.53,10.32
0.0,0.0,1659,-3.8,-9.53,1.49,10.37
0.0,0.0,1664,-3.84,-9.49,1.53,10.36
0.0,0.0,1658,-3.8,-9.41,1.53,10.27
0.0,0.0,1654,-3.8,-9.57,1.49,10.41
0.0,0.0,1653,-3.84,-9.49,1.53,10.36
0.0,0.0,1687,-3.8,-9.57,1.45,10.4
0.0,0.0,1651,-3.88,-9.53,1.41,10.39
0.0,0.0,1663,-3.84,-9.53,1.49,10.39
0.0,0.0,1663,-3.84,-9.53,1.53,10.39
0.0,0.0,1675,-3.8,-9.53,1.53,10.38
0.0,0.0,1664,-3.88,-9.53,1.49,10.4
0.0,0.0,1663,-3.8,-9.57,1.45,10.4
0.0,0.0,1662,-3.88,-9.53,1.53,10.41
0.0,0.0,1667,-3.8,-9.53,1.49,10.37
0.0,0.0,1672,-3.84,-9.53,1.57,10.4
0.0,0.0,1659,-3.92,-9.61,1.57,10.5
0.0,0.0,1685,-3.84,-9.53,1.57,10.4
0.0,0.0,1657,-3.84,-9.57,1.45,10.42
0.0,0.0,1678,-3.84,-9.53,1.49,10.39
0.0,0.0,1651,-3.84,-9.49,1.45,10.34
0.0,0.0,1668,-3.8,-9.57,1.45,10.4
0.0,0.0,1667,-3.84,-9.53,1.53,10.39
0.0,0.0,1659,-3.84,-9.49,1.57,10.36
0.0,0.0,1665,-3.8,-9.53,1.57,10.38
0.0,0.0,1646,-3.84,-9.53,1.45,10.38
0.0,0.0,1662,-3.84,-9.57,1.49,10.42
0.0,0.0,1666,-3.88,-9.53,1.49,10.4
0.0,0.0,1666,-3.8,-9.49,1.53,10.34
0.0,0.0,1666,-3.84,-9.57,1.49,10.42
0.0,0.0,1659,-3.8,-9.53,1.45,10.37
0.0,0.0,1688,-3.84,-9.53,1.57,10.4
0.0,0.0,1658,-3.77,-9.57,1.49,10.39
0.0,0.0,1656,-3.84,-9.53,1.49,10.39
0.0,0.0,1660,-3.8,-9.53,1.53,10.38
0.0,0.0,1667,-3.77,-9.49,1.49,10.32
0.0,0.0,1666,-3.8,-9.57,1.49,10.41
0.0,0.0,1661,-3.77,-9.53,1.49,10.36
0.0,0.0,1668,-3.84,-9.53,1.53,10.39
0.0,0.0,1663,-3.8,-9.53,1.49,10.37
0.0,0.0,1666,-3.8,-9.57,1.49,10.41
0.0,0.0,1688,-3.8,-9.57,1.49,10.41
0.0,0.0,1667,-3.8,-9.49,1.41,10.32
0.0,0.0,1660,-3.77,-9.57,1.49,10.39
0.0,0.0,1674,-3.69,-9.57,1.37,10.35
0.0,0.0,1660,-3.84,-9.53,1.41,10.37
0.0,0.0,1671,-3.8,-9.57,1.49,10.41
0.0,0.0,1660,-3.84,-9.53,1.41,10.37
0.0,0.0,1667,-3.8,-9.53,1.41,10.36
0.0,0.0,1658,-3.88,-9.53,1.41,10.39
0.0,0.0,1665,-3.84,-9.45,1.57,10.33
0.0,0.0,1665,-3.84,-9.53,1.49,10.39
0.0,0.0,1652,-3.84,-9.41,1.45,10.27
0.0,0.0,1660,-3.77,-9.53,1.45,10.35
0.0,0.0,1668,-3.8,-9.53,1.53,10.38
0.0,0.0,1670,-3.8,-9.53,1.45,10.37
0.0,0.0,1669,-3.84,-9.53,1.41,10.37
0.0,0.0,1666,-3.84,-9.57,1.45,10.42
0.0,0.0,1662,-3.84,-9.49,1.49,10.35
0.0,0.0,1663,-3.88,-9.53,1.45,10.39
0.0,0.0,1670,-3.84,-9.53,1.45,10.38
0.0,0.0,1653,-3.88,-9.49,1.49,10.36
0.0,0.0,1649,-3.8,-9.57,1.45,10.4
0.0,0.0,1663,-3.8,-9.53,1.49,10.37
0.0,0.0,1666,-3.84,-9.53,1.45,10.38
0.0,0.0,1669,-3.77,-9.53,1.53,10.36
0.0,0.0,1684,-3.8,-9.53,1.57,10.38
0.0,0.0,1663,-3.84,-9.53,1.49,10.39
0.0,0.0,1666,-3.88,-9.53,1.45,10.39
0.0,0.0,1674,-3.84,-9.57,1.57,10.43
0.0,0.0,1668,-3.8,-9.53,1.49,10.37
0.0,0.0,1665,-3.84,-9.53,1.45,10.38
0.0,0.0,1693,-3.8,-9.53,1.53,10.38
0.0,0.0,1666,-3.8,-9.53,1.53,10.38
0.0,0.0,1666,-3.84,-9.53,1.49,10.39
0.0,0.0,1670,-3.84,-9.53,1.45,10.38
0.0,0.0,1656,-3.84,-9.57,1.49,10.42
0.0,0.0,1682,-3.84,-9.49,1.45,10.34
0.0,0.0,1662,-3.84,-9.53,1.49,10.39
0.0,0.0,1680,-3.8,-9.57,1.53,10.41
0.0,0.0,1663,-3.84,-9.57,1.41,10.41
0.0,0.0,1664,-3.8,-9.53,1.49,10.37
0.0,0.0,1668,-3.84,-9.57,1.45,10.42
0.0,0.0,1667,-3.8,-9.53,1.41,10.36
0.0,0.0,1655,-3.84,-9.53,1.49,10.39
0.0,0.0,1663,-3.84,-9.53,1.49,10.39
0.0,0.0,1666,-3.88,-9.49,1.45,10.36
0.0,0.0,1670,-3.84,-9.49,1.49,10.35
0.0,0.0,1668,-3.8,-9.53,1.53,10.38
0.0,0.0,1669,-3.8,-9.53,1.49,10.37
0.0,0.0,1657,-3.88,-9.53,1.41,10.39
0.0,0.0,1668,-3.8,-9.53,1.49,10.37
0.0,0.0,1690,-3.84,-9.49,1.45,10.34
0.0,0.0,1674,-3.84,-9.53,1.45,10.38
0.0,0.0,1664,-3.84,-9.53,1.41,10.37
0.0,0.0,1669,-3.84,-9.53,1.49,10.39
0.0,0.0,1667,-3.84,-9.53,1.49,10.39
0.0,0.0,1657,-3.84,-9.57,1.49,10.42
0.0,0.0,1646,-3.84,-9.45,1.45,10.31
0.0,0.0,1670,-3.8,-9.49,1.45,10.33
0.0,0.0,1667,-3.84,-9.53,1.53,10.39
0.0,0.0,1665,-3.8,-9.53,1.65,10.39
0.0,0.0,1689,-3.77,-9.57,1.69,10.42
0.0,0.0,1666,-3.84,-9.61,1.41,10.45
0.0,0.0,1675,-3.96,-9.57,1.33,10.44
0.0,0.0,1674,-3.84,-9.41,1.45,10.27
0.0,0.0,1672,-3.73,-9.57,1.45,10.37
0.0,0.0,1674,-3.84,-9.57,1.53,10.43
0.0,0.0,1675,-3.77,-9.53,1.49,10.36
0.0,0.0,1654,-3.92,-9.57,1.29,10.42
0.0,0.0,1658,-3.84,-9.73,1.33,10.54
0.0,0.0,1655,-3.77,-9.49,1.49,10.32
0.0,0.0,1664,-4.04,-9.57,1.18,10.46
0.0,0.0,1655,-4.0,-9.73,1.14,10.58
0.0,0.0,1666,-3.92,-9.53,1.45,10.41
0.0,0.0,1657,-3.77,-10.12,1.14,10.86
0.0,0.0,1678,-4.08,-9.41,1.69,10.4
0.0,0.0,1695,-4.04,-8.71,1.69,9.75
0.0,0.0,1710,-3.88,-9.53,1.26,10.37
0.0,0.0,1687,-3.92,-9.69,1.26,10.53
0.0,0.0,1698,-4.0,-9.73,1.18,10.58
0.0,0.0,1691,-3.96,-9.69,1.22,10.54
0.0,0.0,1698,-3.8,-9.49,1.57,10.35
0.0,0.0,1697,-3.88,-9.69,1.29,10.52
0.0,0.0,1674,-3.57,-9.49,1.69,10.28
0.0,0.0,1679,-3.84,-9.57,1.45,10.42
0.0,0.0,1685,-3.73,-9.57,1.45,10.37
0.0,0.0,1691,-3.8,-9.49,1.41,10.32
0.0,0.0,1686,-3.8,-9.49,1.45,10.33
0.0,0.0,1697,-3.77,-9.61,1.53,10.43
0.0,0.0,1730,-3.8,-9.49,1.53,10.34
0.0,0.0,1680,-3.84,-9.57,1.49,10.42
0.0,0.0,1700,-3.57,-9.69,1.57,10.44
0.0,0.0,1633,-3.8,-9.38,1.37,10.21
0.0,0.0,1623,-3.61,-9.53,1.29,10.27
0.0,0.0,1622,-3.73,-9.53,1.33,10.32
0.0,0.0,1653,-3.61,-9.65,1.29,10.38
0.0,0.0,1626,-3.69,-9.57,1.65,10.39
0.0,0.0,1651,-3.73,-9.61,1.45,10.41
0.0,0.0,1640,-3.57,-9.57,1.45,10.32
0.0,0.0,1665,-3.65,-9.61,1.41,10.38
0.0,0.0,1617,-3.61,-9.57,1.45,10.33
0.0,0.0,1707,-5.3,-10.87,1.37,12.17
0.0,0.0,1837,-1.18,-9.06,1.1,9.2
0.0,0.0,3017,-3.96,-9.69,0.67,10.49
0.0,0.0,1755,-2.16,-9.77,0.71,10.03
0.0,0.0,1578,-1.29,-11.26,1.41,11.42
0.0,0.0,1736,-1.41,-10.83,1.84,11.07
0.0,0.0,1815,-1.84,-10.43,2.28,10.84
0.0,0.0,1868,-1.92,-10.12,2.2,10.53
0.0,0.0,1919,-1.92,-10.16,2.16,10.56
0.0,0.0,1916,-1.88,-10.2,2.2,10.6
0.0,0.0,1953,-1.88,-10.16,2.24,10.57
0.0,0.0,1979,-1.84,-10.12,2.24,10.53
0.0,0.0,1989,-1.92,-10.16,2.2,10.57
0.0,0.0,2006,-1.84,-10.24,2.24,10.64
0.0,0.0,1980,-1.84,-10.16,2.24,10.56
0.0,0.0,1982,-1.8,-10.2,2.24,10.6
0.0,0.0,1979,-1.84,-10.2,2.24,10.6
0.0,0.0,2013,-1.8,-10.2,2.2,10.59
0.0,0.0,2000,-1.84,-10.2,2.16,10.59
0.0,0.0,2019,-1.77,-10.24,2.2,10.62
0.0,0.0,2002,-1.77,-10.24,2.28,10.64
0.0,0.0,2011,-1.77,-10.2,2.2,10.58
0.0,0.0,2009,-1.73,-10.24,2.24,10.62
0.0,0.0,2004,-1.8,-10.2,2.16,10.58
0.0,0.0,2007,-1.8,-10.2,2.2,10.59
0.0,0.0,2016,-1.77,-10.24,2.24,10.63
0.0,0.0,2012,-1.77,-10.2,2.2,10.58
0.0,0.0,2025,-1.77,-10.2,2.24,10.59
0.0,0.0,2013,-1.77,-10.2,2.2,10.58
0.0,0.0,2037,-1.73,-10.24,2.24,10.62
0.0,0.0,2030,-1.77,-10.24,2.24,10.63
0.0,0.0,2007,-1.77,-10.24,2.28,10.64
0.0,0.0,2035,-1.73,-10.2,2.24,10.58
0.0,0.0,2023,-1.65,-10.24,2.28,10.62
0.0,0.0,2025,-1.69,-10.24,2.2,10.61
0.0,0.0,2023,-1.57,-10.24,2.2,10.59
0.0,0.0,2038,-1.73,-10.28,2.24,10.66
0.0,0.0,2032,-1.65,-10.28,2.2,10.64
0.0,0.0,2034,-1.69,-10.24,2.24,10.61
0.0,0.0,2030,-1.73,-10.2,2.24,10.58
0.0,0.0,2031,-1.69,-10.2,2.28,10.58
0.0,0.0,2035,-1.69,-10.24,2.24,10.61
0.0,0.0,2039,-1.69,-10.28,2.2,10.64
0.0,0.0,2038,-1.65,-10.2,2.2,10.56
0.0,0.0,2040,-1.69,-10.24,2.16,10.6
0.0,0.0,2033,-1.69,-10.28,2.24,10.65
0.0,0.0,2038,-1.65,-10.24,2.2,10.6
0.0,0.0,2033,-1.69,-10.28,2.2,10.64
0.0,0.0,2046,-1.69,-10.24,2.24,10.61
0.0,0.0,2039,-1.61,-10.24,2.24,10.6
0.0,0.0,2055,-1.65,-10.32,2.16,10.67
0.0,0.0,2050,-1.61,-10.2,2.28,10.57
0.0,0.0,2045,-1.73,-10.28,2.12,10.63
0.0,0.0,2051,-1.65,-10.28,2.28,10.65
0.0,0.0,2049,-1.69,-10.28,2.31,10.67
0.0,0.0,2052,-1.69,-10.2,2.28,10.58
0.0,0.0,2038,-1.61,-10.2,2.24,10.56
0.0,0.0,2025,-1.61,-10.28,2.24,10.64
0.0,0.0,2051,-1.61,-10.28,2.2,10.63
0.0,0.0,2050,-1.61,-10.28,2.24,10.64
0.0,0.0,2053,-1.61,-10.28,2.28,10.65
0.0,0.0,2041,-1.69,-10.28,2.24,10.65
0.0,0.0,2051,-1.65,-10.2,2.31,10.59
0.0,0.0,2040,-1.65,-10.32,2.24,10.68
0.0,0.0,2054,-1.57,-10.32,2.24,10.67
0.0,0.0,2009,-1.45,-10.2,2.28,10.55
0.0,0.0,2048,-1.73,-10.32,2.08,10.66
0.0,0.0,2045,-1.61,-10.2,2.24,10.56
0.0,0.0,2062,-1.61,-10.24,2.24,10.6
0.0,0.0,2039,-1.57,-10.24,2.16,10.58
0.0,0.0,2058,-1.61,-10.2,2.28,10.57
0.0,0.0,2024,-1.57,-10.28,2.28,10.64
0.0,0.0,1986,-1.53,-10.28,2.24,10.63
0.0,0.0,2010,-1.57,-10.28,2.28,10.64
0.0,0.0,2003,-1.53,-10.28,2.2,10.62
0.0,0.0,2010,-1.61,-10.28,2.24,10.64
0.0,0.0,1998,-1.57,-10.32,2.31,10.69
0.0,0.0,2011,-1.57,-10.32,2.24,10.67
0.0,0.0,2035,-1.53,-10.24,2.28,10.6
0.0,0.0,2023,-1.49,-10.28,2.16,10.61
0.0,0.0,2013,-1.49,-10.32,2.2,10.65
0.0,0.0,2006,-1.61,-10.28,2.12,10.62
0.0,0.0,2019,-1.49,-10.28,2.24,10.62
0.0,0.0,2014,-1.57,-10.28,2.24,10.63
0.0,0.0,2006,-1.53,-10.32,2.24,10.67
0.0,0.0,1999,-1.53,-10.36,2.24,10.7
0.0,0.0,2004,-1.53,-10.32,2.24,10.67
0.0,0.0,2017,-1.49,-10.24,2.24,10.58
0.0,0.0,2006,-1.57,-10.28,2.16,10.62
0.0,0.0,2010,-1.57,-10.2,2.24,10.56
0.0,0.0,2021,-1.49,-10.28,2.2,10.61
0.0,0.0,2015,-1.53,-10.24,2.28,10.6
0.0,0.0,2012,-1.53,-10.32,2.2,10.66
0.0,0.0,2012,-1.57,-10.24,2.16,10.58
0.0,0.0,2022,-1.53,-10.28,2.24,10.63
0.0,0.0,2014,-1.53,-10.28,2.2,10.62
0.0,0.0,2024,-1.53,-10.32,2.24,10.67
0.0,0.0,2015,-1.49,-10.28,2.2,10.61
0.0,0.0,2013,-1.53,-10.28,2.16,10.61
0.0,0.0,2019,-1.49,-10.28,2.2,10.61
0.0,0.0,2013,-1.53,-10.24,2.28,10.6
0.0,0.0,2036,-1.53,-10.24,2.16,10.57
0.0,0.0,2025,-1.49,-10.32,2.24,10.66
0.0,0.0,2022,-1.49,-10.28,2.24,10.62
0.0,0.0,2007,-1.49,-10.36,2.24,10.7
0.0,0.0,2025,-1.41,-10.32,2.2,10.64
0.0,0.0,2047,-1.53,-10.32,2.16,10.65
0.0,0.0,2016,-1.45,-10.32,2.28,10.66
0.0,0.0,2016,-1.53,-10.24,2.16,10.57
0.0,0.0,2030,-1.49,-10.28,2.24,10.62
0.0,0.0,2003,-1.49,-10.32,2.16,10.64
0.0,0.0,2028,-1.49,-10.28,2.16,10.61
0.0,0.0,2042,-1.57,-10.36,2.16,10.69
0.0,0.0,2026,-1.49,-10.24,2.08,10.55
0.0,0.0,2022,-1.45,-10.32,2.12,10.63
0.0,0.0,2031,-1.53,-10.24,2.2,10.58
0.0,0.0,2031,-1.49,-10.28,2.24,10.62
0.0,0.0,2020,-1.45,-10.28,2.24,10.62
0.0,0.0,2023,-1.45,-10.32,2.24,10.66
0.0,0.0,2018,-1.49,-10.28,2.16,10.61
0.0,0.0,2019,-1.53,-10.28,2.24,10.63
0.0,0.0,2011,-1.49,-10.32,2.28,10.67
0.0,0.0,2020,-1.45,-10.24,2.24,10.58
0.0,0.0,2027,-1.45,-10.28,2.16,10.6
0.0,0.0,2004,-1.49,-10.2,2.2,10.54
0.0,0.0,2030,-1.49,-10.28,2.28,10.63
0.0,0.0,2021,-1.49,-10.28,2.2,10.61
0.0,0.0,2013,-1.49,-10.36,2.28,10.71
0.0,0.0,2030,-1.49,-10.28,2.24,10.62
0.0,0.0,2031,-1.45,-10.24,2.2,10.57
0.0,0.0,2024,-1.45,-10.28,2.2,10.61
0.0,0.0,2023,-1.53,-10.28,2.24,10.63
0.0,0.0,2017,-1.45,-10.28,2.24,10.62
0.0,0.0,2040,-1.41,-10.28,2.28,10.62
0.0,0.0,2034,-1.49,-10.28,2.24,10.62
0.0,0.0,2047,-1.45,-10.28,2.16,10.6
0.0,0.0,1999,-1.41,-10.28,2.2,10.6
0.0,0.0,2026,-1.45,-10.2,2.24,10.54
0.0,0.0,2029,-1.45,-10.24,2.28,10.59
0.0,0.0,2058,-1.37,-10.32,2.2,10.64
0.0,0.0,2018,-1.45,-10.32,2.24,10.66
0.0,0.0,2020,-1.49,-10.28,2.24,10.62
0.0,0.0,2026,-1.41,-10.28,2.35,10.64
0.0,0.0,2013,-1.41,-10.32,2.24,10.65
0.0,0.0,2022,-1.37,-10.24,2.24,10.57
0.0,0.0,2028,-1.45,-10.32,2.2,10.65
0.0,0.0,2031,-1.45,-10.28,2.28,10.63
0.0,0.0,2028,-1.45,-10.32,2.2,10.65
0.0,0.0,2015,-1.45,-10.28,2.28,10.63
0.0,0.0,2033,-1.45,-10.32,2.24,10.66
0.0,0.0,2023,-1.45,-10.28,2.2,10.61
0.0,0.0,2017,-1.49,-10.36,2.24,10.7
0.0,0.0,2037,-1.57,-10.32,2.04,10.63
0.0,0.0,2028,-1.45,-10.28,2.24,10.62
0.0,0.0,2018,-1.45,-10.36,2.24,10.69
0.0,0.0,2018,-1.45,-10.36,2.2,10.69
0.0,0.0,2030,-1.45,-10.32,2.16,10.64
0.0,0.0,2046,-1.41,-10.24,2.24,10.57
0.0,0.0,2025,-1.49,-10.24,2.24,10.58
0.0,0.0,2021,-1.41,-10.36,2.28,10.7
0.0,0.0,2022,-1.45,-10.32,2.16,10.64
0.0,0.0,2008,-1.41,-10.28,2.24,10.61
0.0,0.0,2023,-1.45,-10.32,2.16,10.64
0.0,0.0,2020,-1.45,-10.32,2.24,10.66
0.0,0.0,2034,-1.41,-10.28,2.28,10.62
0.0,0.0,2016,-1.41,-10.32,2.28,10.66
0.0,0.0,2008,-1.37,-10.36,2.16,10.67
0.0,0.0,2044,-1.49,-10.28,2.16,10.61
0.0,0.0,2025,-1.45,-10.28,2.24,10.62
0.0,0.0,2016,-1.41,-10.32,2.24,10.65
0.0,0.0,2022,-1.41,-10.32,2.2,10.64
0.0,0.0,2019,-1.45,-10.24,2.2,10.57
0.0,0.0,2019,-1.37,-10.32,2.16,10.63
0.0,0.0,1990,-1.41,-10.36,2.16,10.67
0.0,0.0,2016,-1.41,-10.28,2.24,10.61
0.0,0.0,2018,-1.37,-10.32,2.28,10.65
0.0,0.0,2032,-1.41,-10.28,2.12,10.59
0.0,0.0,2037,-1.41,-10.32,2.24,10.65
0.0,0.0,2047,-1.41,-10.24,2.24,10.57
0.0,0.0,1995,-1.41,-10.32,2.2,10.64
0.0,0.0,2018,-1.41,-10.32,2.24,10.65
0.0,0.0,2027,-1.41,-10.32,2.31,10.67
0.0,0.0,2018,-1.45,-10.32,2.2,10.65
0.0,0.0,2023,-1.41,-10.28,2.2,10.6
0.0,0.0,2028,-1.45,-10.32,2.2,10.65
0.0,0.0,2031,-1.41,-10.32,2.24,10.65
0.0,0.0,2027,-1.41,-10.28,2.16,10.6
0.0,0.0,2024,-1.45,-10.36,2.24,10.69
0.0,0.0,2034,-1.37,-10.32,2.24,10.65
0.0,0.0,2057,-1.41,-10.28,2.24,10.61
0.0,0.0,2035,-1.41,-10.28,2.24,10.61
0.0,0.0,2022,-1.37,-10.28,2.2,10.6
0.0,0.0,2024,-1.41,-10.36,2.16,10.67
0.0,0.0,2032,-1.41,-10.32,2.12,10.63
0.0,0.0,2027,-1.37,-10.24,2.28,10.58
0.0,0.0,2026,-1.37,-10.36,2.2,10.67
0.0,0.0,2032,-1.37,-10.32,2.24,10.65
0.0,0.0,2024,-1.37,-10.32,2.28,10.65
0.0,0.0,2023,-1.37,-10.28,2.16,10.59
0.0,0.0,2026,-1.41,-10.36,2.2,10.68
0.0,0.0,2017,-1.41,-10.28,2.24,10.61
0.0,0.0,2011,-1.41,-10.28,2.2,10.6
0.0,0.0,2022,-1.41,-10.32,2.24,10.65
0.0,0.0,2029,-1.37,-10.32,2.24,10.65
0.0,0.0,2030,-1.41,-10.2,2.24,10.54
0.0,0.0,2013,-1.45,-10.32,2.2,10.65
0.0,0.0,2029,-1.37,-10.36,2.2,10.67
0.0,0.0,2038,-1.37,-10.32,2.28,10.65
0.0,0.0,2021,-1.41,-10.28,2.28,10.62
0.0,0.0,2023,-1.37,-10.28,2.2,10.6
0.0,0.0,2011,-1.37,-10.32,2.2,10.64
0.0,0.0,2031,-1.37,-10.32,2.12,10.62
0.0,0.0,2017,-1.41,-10.32,2.16,10.63
0.0,0.0,2022,-1.41,-10.36,2.24,10.69
0.0,0.0,2014,-1.41,-10.32,2.24,10.65
0.0,0.0,2019,-1.53,-10.32,2.24,10.67
0.0,0.0,2022,-1.37,-10.32,2.24,10.65
0.0,0.0,2020,-1.37,-10.32,2.24,10.65
0.0,0.0,2021,-1.37,-10.32,2.12,10.62
0.0,0.0,2011,-1.41,-10.28,2.12,10.59
0.0,0.0,2005,-1.33,-10.32,2.2,10.63
0.0,0.0,2037,-1.37,-10.28,2.24,10.61
0.0,0.0,2014,-1.41,-10.4,2.16,10.71
0.0,0.0,2022,-1.37,-10.28,2.16,10.59
0.0,0.0,2028,-1.41,-10.28,2.2,10.6
0.0,0.0,2027,-1.37,-10.32,2.16,10.63
0.0,0.0,2050,-1.41,-10.28,2.2,10.6
0.0,0.0,2011,-1.37,-10.32,2.2,10.64
0.0,0.0,2020,-1.33,-10.32,2.28,10.65
0.0,0.0,2035,-1.33,-10.32,2.2,10.63
0.0,0.0,2018,-1.37,-10.32,2.16,10.63
0.0,0.0,2047,-1.37,-10.32,2.16,10.63
0.0,0.0,2019,-1.37,-10.36,2.2,10.67
0.0,0.0,2033,-1.37,-10.32,2.28,10.65
0.0,0.0,2025,-1.33,-10.28,2.24,10.6
0.0,0.0,2030,-1.41,-10.32,2.24,10.65
0.0,0.0,2020,-1.33,-10.32,2.2,10.63
0.0,0.0,2037,-1.41,-10.32,2.2,10.64
0.0,0.0,2034,-1.37,-10.36,2.24,10.68
0.0,0.0,2032,-1.29,-10.32,2.28,10.64
0.0,0.0,2039,-1.37,-10.32,2.16,10.63
0.0,0.0,2019,-1.33,-10.28,2.12,10.58
0.0,0.0,2032,-1.33,-10.32,2.2,10.63
0.0,0.0,2033,-1.33,-10.28,2.24,10.6
0.0,0.0,2033,-1.33,-10.36,2.28,10.69
0.0,0.0,2030,-1.37,-10.28,2.2,10.6
0.0,0.0,2048,-1.33,-10.28,2.24,10.6
0.0,0.0,2022,-1.37,-10.28,2.24,10.61
0.0,0.0,2024,-1.33,-10.36,2.2,10.67
0.0,0.0,2035,-1.33,-10.32,2.2,10.63
0.0,0.0,2032,-1.37,-10.28,2.24,10.61
0.0,0.0,2027,-1.33,-10.32,2.2,10.63
0.0,0.0,2025,-1.37,-10.36,2.24,10.68
0.0,0.0,2025,-1.33,-10.32,2.24,10.64
0.0,0.0,2035,-1.37,-10.32,2.2,10.64
0.0,0.0,2039,-1.37,-10.36,2.16,10.67
0.0,0.0,2028,-1.41,-10.43,2.16,10.75
0.0,0.0,2033,-1.37,-10.32,2.16,10.63
0.0,0.0,2027,-1.37,-10.32,2.24,10.65
0.0,0.0,2049,-1.41,-10.36,2.2,10.68
0.0,0.0,2032,-1.37,-10.36,2.24,10.68
0.0,0.0,2036,-1.33,-10.28,2.2,10.59
0.0,0.0,2021,-1.33,-10.32,2.2,10.63
0.0,0.0,2026,-1.37,-10.36,2.2,10.67
0.0,0.0,2029,-1.29,-10.32,2.24,10.64
0.0,0.0,2061,-1.33,-10.32,2.2,10.63
0.0,0.0,2009,-1.33,-10.36,2.16,10.66
0.0,0.0,2020,-1.33,-10.32,2.2,10.63
0.0,0.0,2030,-1.33,-10.32,2.2,10.63
0.0,0.0,2044,-1.33,-10.24,2.24,10.56
0.0,0.0,2008,-1.33,-10.32,2.2,10.63
0.0,0.0,2025,-1.33,-10.36,2.24,10.68
0.0,0.0,2019,-1.33,-10.32,2.2,10.63
0.0,0.0,2038,-1.37,-10.28,2.28,10.62
0.0,0.0,2025,-1.37,-10.36,2.2,10.67
0.0,0.0,2012,-1.33,-10.28,2.16,10.59
0.0,0.0,2018,-1.26,-10.28,2.28,10.6
0.0,0.0,2019,-1.26,-10.24,2.28,10.56
0.0,0.0,2022,-1.37,-10.36,2.12,10.66
0.0,0.0,2017,-1.37,-10.32,2.2,10.64
0.0,0.0,2017,-1.45,-10.43,2.12,10.75
0.0,0.0,2015,-1.33,-10.32,2.24,10.64
0.0,0.0,2026,-1.29,-10.32,2.2,10.63
0.0,0.0,2030,-1.33,-10.36,2.16,10.66
0.0,0.0,2017,-1.33,-10.32,2.2,10.63
0.0,0.0,2007,-1.33,-10.36,2.24,10.68
0.0,0.0,2023,-1.33,-10.32,2.2,10.63
0.0,0.0,2026,-1.29,-10.32,2.16,10.62
0.0,0.0,2036,-1.33,-10.32,2.2,10.63
0.0,0.0,2020,-1.33,-10.28,2.2,10.59
0.0,0.0,2023,-1.33,-10.24,2.2,10.56
0.0,0.0,2025,-1.37,-10.32,2.24,10.65
0.0,0.0,2021,-1.37,-10.28,2.2,10.6
0.0,0.0,2021,-1.33,-10.4,2.16,10.7
0.0,0.0,2020,-1.37,-10.32,2.2,10.64
0.0,0.0,2019,-1.29,-10.36,2.2,10.67
0.0,0.0,2028,-1.37,-10.32,2.16,10.63
0.0,0.0,2020,-1.33,-10.32,2.2,10.63
0.0,0.0,2026,-1.33,-10.32,2.16,10.62
0.0,0.0,2001,-1.33,-10.32,2.24,10.64
0.0,0.0,2014,-1.33,-10.32,2.24,10.64
0.0,0.0,1999,-1.29,-10.47,2.16,10.77
0.0,0.0,2049,-1.26,-10.32,2.24,10.63
0.0,0.0,2045,-1.37,-10.36,2.28,10.69
0.0,0.0,2046,-1.29,-10.32,2.35,10.66
0.0,0.0,2069,-1.41,-10.24,2.35,10.6
0.0,0.0,2036,-1.26,-10.43,2.2,10.74
0.0,0.0,2032,-1.37,-10.2,2.39,10.57
0.0,0.0,2000,-1.37,-10.28,2.28,10.62
0.0,0.0,1994,-1.26,-10.36,2.28,10.68
0.0,0.0,2046,-1.33,-10.24,2.28,10.57
0.0,0.0,2050,-1.29,-10.24,2.28,10.57
0.0,0.0,2040,-1.18,-10.32,2.43,10.66
0.0,0.0,1984,-1.33,-10.47,2.12,10.77
0.0,0.0,1969,-1.26,-10.36,2.2,10.66
0.0,0.0,1989,-1.33,-10.24,2.24,10.56
0.0,0.0,2021,-1.33,-10.32,2.24,10.64
0.0,0.0,1963,-1.29,-10.36,2.24,10.67
0.0,0.0,1971,-1.29,-10.4,2.31,10.73
0.0,0.0,1962,-1.22,-10.43,2.2,10.73
0.0,0.0,2011,-1.29,-10.32,2.24,10.64
0.0,0.0,2015,-1.22,-10.32,2.24,10.63
0.0,0.0,1997,-1.22,-10.36,2.24,10.66
0.0,0.0,1974,-1.26,-10.32,2.24,10.63
0.0,0.0,1965,-1.18,-10.32,2.2,10.61
0.0,0.0,1952,-1.22,-10.36,2.2,10.66
0.0,0.0,1973,-1.22,-10.28,2.28,10.6
0.0,0.0,1980,-1.37,-10.28,2.2,10.6
0.0,0.0,2013,-1.22,-10.4,2.35,10.73
0.0,0.0,2034,-1.22,-10.28,2.28,10.6
0.0,0.0,1996,-1.26,-10.36,2.24,10.67
0.0,0.0,1949,-1.22,-10.4,2.2,10.69
0.0,0.0,1955,-1.26,-10.4,2.16,10.69
0.0,0.0,1972,-1.22,-10.32,2.28,10.63
0.0,0.0,1990,-1.22,-10.32,2.08,10.59
0.0,0.0,2015,-1.26,-10.36,2.24,10.67
0.0,0.0,2003,-1.18,-10.32,2.35,10.65
0.0,0.0,1968,-1.29,-10.4,2.31,10.73
0.0,0.0,1939,-1.22,-10.28,2.24,10.59
0.0,0.0,1947,-1.22,-10.32,2.28,10.63
0.0,0.0,1976,-1.14,-10.32,2.24,10.62
0.0,0.0,2003,-1.18,-10.28,2.28,10.59
0.0,0.0,2007,-1.22,-10.43,2.16,10.72
0.0,0.0,1979,-1.14,-10.36,2.24,10.66
0.0,0.0,1961,-1.22,-10.32,2.2,10.62
0.0,0.0,1946,-1.18,-10.4,2.31,10.71
0.0,0.0,1969,-1.14,-10.32,2.2,10.61
0.0,0.0,2008,-1.18,-10.4,2.28,10.71
0.0,0.0,2007,-1.18,-10.32,2.31,10.64
0.0,0.0,1972,-1.18,-10.32,2.2,10.61
0.0,0.0,1951,-1.18,-10.36,2.2,10.65
0.0,0.0,1999,-1.22,-10.4,2.12,10.68
0.0,0.0,1995,-1.22,-10.32,2.24,10.63
0.0,0.0,1976,-1.26,-10.32,2.28,10.64
0.0,0.0,1957,-1.14,-10.4,2.16,10.68
0.0,0.0,1951,-1.14,-10.36,2.28,10.66
0.0,0.0,1961,-1.18,-10.43,2.24,10.74
0.0,0.0,1977,-1.18,-10.36,2.31,10.68
0.0,0.0,1993,-1.18,-10.36,2.31,10.68
0.0,0.0,1993,-1.18,-10.36,2.28,10.67
0.0,0.0,1972,-1.18,-10.32,2.31,10.64
0.0,0.0,1962,-1.14,-10.4,2.24,10.69
0.0,0.0,1953,-1.1,-10.36,2.2,10.64
0.0,0.0,1962,-1.14,-10.36,2.24,10.66
0.0,0.0,1994,-1.14,-10.36,2.24,10.66
0.0,0.0,2006,-1.14,-10.28,2.24,10.58
0.0,0.0,1958,-1.14,-10.4,2.2,10.69
0.0,0.0,1957,-1.14,-10.36,2.24,10.66
0.0,0.0,1951,-1.06,-10.4,2.24,10.69
0.0,0.0,1995,-1.1,-10.36,2.35,10.68
0.0,0.0,2017,-1.18,-10.32,2.28,10.63
0.0,0.0,1977,-1.14,-10.36,2.2,10.65
0.0,0.0,1951,-1.1,-10.36,2.24,10.65
0.0,0.0,1964,-1.1,-10.36,2.2,10.64
0.0,0.0,2006,-1.1,-10.4,2.24,10.69
0.0,0.0,2022,-1.1,-10.4,2.28,10.7
0.0,0.0,1973,-1.14,-10.36,2.2,10.65
0.0,0.0,1959,-1.1,-10.4,2.2,10.68
0.0,0.0,1954,-1.14,-10.36,2.24,10.66
0.0,0.0,1993,-1.14,-10.32,2.24,10.62
0.0,0.0,1963,-1.1,-10.36,2.16,10.64
0.0,0.0,1943,-1.1,-10.36,2.2,10.64
0.0,0.0,1947,-1.1,-10.4,2.24,10.69
0.0,0.0,1962,-1.1,-10.36,2.24,10.65
0.0,0.0,2003,-1.1,-10.28,2.24,10.57
0.0,0.0,2007,-1.14,-10.36,2.31,10.67
0.0,0.0,1978,-1.14,-10.36,2.24,10.66
0.0,0.0,1993,-1.1,-10.32,2.2,10.6
0.0,0.0,1953,-1.1,-10.36,2.2,10.64
0.0,0.0,1983,-1.1,-10.36,2.24,10.65
0.0,0.0,2004,-1.14,-10.4,2.24,10.69
0.0,0.0,2002,-1.02,-10.4,2.2,10.67
0.0,0.0,1954,-1.1,-10.36,2.31,10.67
0.0,0.0,1981,-0.94,-10.28,2.24,10.56
0.0,0.0,2009,-1.14,-10.36,2.31,10.67
0.0,0.0,2017,-1.06,-10.36,2.2,10.64
0.0,0.0,1956,-1.06,-10.4,2.24,10.69
0.0,0.0,1954,-1.14,-10.43,2.28,10.74
0.0,0.0,1959,-1.06,-10.43,2.16,10.71
0.0,0.0,1979,-1.14,-10.43,2.28,10.74
0.0,0.0,2008,-1.1,-10.4,2.24,10.69
0.0,0.0,1995,-1.06,-10.36,2.31,10.66
0.0,0.0,1963,-1.1,-10.36,2.2,10.64
0.0,0.0,1958,-1.02,-10.24,2.24,10.53
0.0,0.0,1955,-1.1,-10.36,2.2,10.64
0.0,0.0,1986,-1.1,-10.32,2.24,10.61
0.0,0.0,1998,-1.1,-10.36,2.24,10.65
0.0,0.0,1989,-1.1,-10.4,2.2,10.68
0.0,0.0,1957,-1.1,-10.55,2.16,10.83
0.0,0.0,1953,-1.06,-10.36,2.2,10.64
0.0,0.0,1961,-1.06,-10.4,2.24,10.69
0.0,0.0,2005,-1.06,-10.36,2.2,10.64
0.0,0.0,2013,-1.1,-10.4,2.24,10.69
0.0,0.0,1969,-0.94,-10.32,2.35,10.62
0.0,0.0,1949,-0.98,-10.4,2.28,10.69
0.0,0.0,1982,-1.14,-10.28,2.16,10.56
0.0,0.0,1999,-1.06,-10.36,2.28,10.66
0.0,0.0,2008,-1.1,-10.4,2.28,10.7
0.0,0.0,1971,-0.98,-10.36,2.24,10.64
0.0,0.0,1951,-1.06,-10.32,2.16,10.59
0.0,0.0,1983,-1.06,-10.32,2.24,10.61
0.0,0.0,2006,-1.06,-10.36,2.2,10.64
0.0,0.0,2005,-1.14,-10.47,2.04,10.73
0.0,0.0,1977,-1.06,-10.36,2.24,10.65
0.0,0.0,1968,-1.1,-10.32,2.16,10.6
0.0,0.0,2026,-1.02,-10.32,2.31,10.62
0.0,0.0,1971,-1.06,-10.36,2.28,10.66
0.0,0.0,1954,-1.14,-10.4,2.31,10.71
0.0,0.0,1946,-1.06,-10.36,2.16,10.63
0.0,0.0,1987,-1.06,-10.4,2.2,10.68
0.0,0.0,1991,-0.98,-10.32,2.43,10.64
0.0,0.0,2006,-1.06,-10.4,2.28,10.69
0.0,0.0,1994,-1.02,-10.36,2.28,10.65
0.0,0.0,1965,-1.02,-10.36,2.28,10.65
0.0,0.0,1957,-0.98,-10.43,2.24,10.72
0.0,0.0,1961,-1.06,-10.36,2.16,10.63
0.0,0.0,2018,-1.02,-10.4,2.24,10.68
0.0,0.0,1943,-1.06,-10.4,2.24,10.69
0.0,0.0,1997,-1.06,-10.36,2.16,10.63
0.0,0.0,2010,-1.06,-10.43,2.28,10.73
0.0,0.0,1974,-1.06,-10.4,2.24,10.69
0.0,0.0,1941,-1.02,-10.4,2.16,10.67
0.0,0.0,1981,-1.02,-10.32,2.28,10.61
0.0,0.0,2001,-1.02,-10.32,2.28,10.61
0.0,0.0,1990,-1.02,-10.36,2.28,10.65
0.0,0.0,1960,-1.02,-10.4,2.24,10.68
0.0,0.0,1981,-0.98,-10.36,2.24,10.64
0.0,0.0,2004,-1.02,-10.36,2.28,10.65
0.0,0.0,1996,-1.18,-10.43,2.28,10.74
0.0,0.0,1971,-1.02,-10.4,2.2,10.67
0.0,0.0,1977,-1.02,-10.36,2.31,10.66
0.0,0.0,2018,-1.02,-10.4,2.2,10.67
0.0,0.0,1976,-0.98,-10.43,2.2,10.71
0.0,0.0,1948,-1.06,-10.36,2.28,10.66
0.0,0.0,1952,-0.94,-10.36,2.28,10.64
0.0,0.0,1970,-1.02,-10.4,2.28,10.69
0.0,0.0,1992,-1.02,-10.43,2.24,10.72
0.0,0.0,2007,-1.02,-10.36,2.31,10.66
0.0,0.0,2020,-1.02,-10.4,2.28,10.69
0.0,0.0,1949,-1.06,-10.32,2.24,10.61
0.0,0.0,1954,-1.02,-10.36,2.2,10.64
0.0,0.0,1940,-1.02,-10.36,2.2,10.64
0.0,0.0,1957,-1.1,-10.32,2.24,10.61
0.0,0.0,1989,-1.02,-10.4,2.28,10.69
0.0,0.0,2012,-1.06,-10.36,2.28,10.66
0.0,0.0,1970,-1.02,-10.36,2.2,10.64
0.0,0.0,1954,-1.02,-10.4,2.16,10.67
0.0,0.0,1949,-0.98,-10.43,2.16,10.7
0.0,0.0,1970,-0.98,-10.36,2.2,10.63
0.0,0.0,1984,-0.98,-10.4,2.31,10.69
0.0,0.0,2006,-1.02,-10.4,2.28,10.69
0.0,0.0,2013,-0.94,-10.36,2.31,10.65
0.0,0.0,1970,-1.02,-10.4,2.2,10.67
0.0,0.0,1957,-1.02,-10.4,2.16,10.67
0.0,0.0,1944,-1.02,-10.75,2.16,11.01
0.0,0.0,1969,-0.98,-10.36,2.24,10.64
0.0,0.0,1987,-0.98,-10.43,2.28,10.72
0.0,0.0,1998,-0.98,-10.43,2.28,10.72
0.0,0.0,1971,-0.98,-10.4,2.28,10.69
0.0,0.0,1965,-0.98,-10.4,2.28,10.69
0.0,0.0,1964,-0.98,-10.43,2.24,10.72
0.0,0.0,1956,-1.06,-10.4,2.2,10.68
0.0,0.0,1983,-0.98,-10.4,2.28,10.69
0.0,0.0,2005,-0.98,-10.36,2.31,10.66
0.0,0.0,1963,-1.02,-10.4,2.24,10.68
0.0,0.0,1973,-0.94,-10.4,2.24,10.67
0.0,0.0,1948,-1.02,-10.43,2.24,10.72
0.0,0.0,1991,-1.02,-10.4,2.24,10.68
0.0,0.0,1993,-1.02,-10.4,2.24,10.68
0.0,0.0,1968,-1.02,-10.36,2.2,10.64
0.0,0.0,1953,-0.98,-10.4,2.24,10.68
0.0,0.0,1954,-0.98,-10.36,2.24,10.64
0.0,0.0,1988,-1.06,-10.36,2.24,10.65
0.0,0.0,1975,-0.98,-10.36,2.2,10.63
0.0,0.0,1966,-0.98,-10.4,2.2,10.67
0.0,0.0,1968,-0.98,-10.43,2.24,10.72
0.0,0.0,1980,-0.94,-10.4,2.2,10.67
0.0,0.0,1975,-0.98,-10.36,2.16,10.62
0.0,0.0,1964,-0.98,-10.4,2.24,10.68
0.0,0.0,1975,-0.98,-10.36,2.2,10.63
0.0,0.0,1969,-1.02,-10.4,2.16,10.67
0.0,0.0,1963,-0.94,-10.36,2.24,10.64
0.0,0.0,1970,-1.02,-10.43,2.16,10.7
0.0,0.0,1979,-0.98,-10.32,2.28,10.61
0.0,0.0,1966,-0.98,-10.36,2.28,10.65
0.0,0.0,1976,-0.98,-10.36,2.28,10.65
0.0,0.0,1979,-0.98,-10.4,2.2,10.67
0.0,0.0,1974,-1.02,-10.4,2.24,10.68
0.0,0.0,1973,-1.06,-10.36,2.28,10.66
0.0,0.0,1972,-0.98,-10.43,2.2,10.71
0.0,0.0,1985,-0.98,-10.4,2.2,10.67
0.0,0.0,1978,-0.94,-10.4,2.28,10.68
0.0,0.0,1949,-0.98,-10.43,2.28,10.72
0.0,0.0,1970,-0.94,-10.43,2.28,10.72
0.0,0.0,1974,-0.98,-10.4,2.24,10.68
0.0,0.0,1973,-1.06,-10.4,2.31,10.7
0.0,0.0,1965,-0.94,-10.4,2.2,10.67
0.0,0.0,1958,-0.98,-10.43,2.28,10.72
0.0,0.0,1979,-0.98,-10.4,2.2,10.67
0.0,0.0,1973,-1.02,-10.43,2.28,10.73
0.0,0.0,1982,-0.94,-10.4,2.24,10.67
0.0,0.0,1968,-0.98,-10.47,2.2,10.75
0.0,0.0,1964,-0.94,-10.43,2.24,10.71
0.0,0.0,1960,-0.94,-10.4,2.2,10.67
0.0,0.0,1962,-1.02,-10.43,2.24,10.72
0.0,0.0,1971,-0.94,-10.43,2.28,10.72
0.0,0.0,1974,-0.98,-10.4,2.2,10.67
0.0,0.0,1989,-0.94,-10.4,2.24,10.67
0.0,0.0,1954,-0.98,-10.4,2.2,10.67
0.0,0.0,1972,-0.98,-10.4,2.2,10.67
0.0,0.0,1965,-0.94,-10.4,2.28,10.68
0.0,0.0,1971,-0.94,-10.36,2.28,10.64
0.0,0.0,1971,-0.98,-10.47,2.24,10.75
0.0,0.0,1971,-0.98,-10.4,2.24,10.68
0.0,0.0,1973,-0.94,-10.4,2.24,10.67
0.0,0.0,1977,-0.98,-10.36,2.24,10.64
0.0,0.0,1971,-0.98,-10.4,2.24,10.68
0.0,0.0,1970,-1.02,-10.36,2.24,10.64
0.0,0.0,1979,-0.98,-10.4,2.2,10.67
0.0,0.0,1981,-0.98,-10.4,2.2,10.67
0.0,0.0,1972,-0.94,-10.43,2.28,10.72
0.0,0.0,1972,-1.02,-10.36,2.28,10.65
0.0,0.0,2003,-0.94,-10.36,2.16,10.62
0.0,0.0,1978,-0.98,-10.4,2.24,10.68
0.0,0.0,1971,-0.98,-10.36,2.16,10.62
0.0,0.0,1971,-0.98,-10.4,2.24,10.68
0.0,0.0,1977,-0.98,-10.36,2.28,10.65
0.0,0.0,1975,-0.94,-10.4,2.2,10.67
0.0,0.0,1988,-0.98,-10.43,2.2,10.71
0.0,0.0,1974,-0.94,-10.43,2.16,10.7
0.0,0.0,1987,-0.98,-10.4,2.28,10.69
0.0,0.0,1971,-0.98,-10.4,2.2,10.67
0.0,0.0,1971,-0.98,-10.4,2.28,10.69
0.0,0.0,1975,-0.98,-10.4,2.28,10.69
0.0,0.0,1977,-0.98,-10.36,2.2,10.63
0.0,0.0,1968,-0.98,-10.36,2.28,10.65
0.0,0.0,1972,-0.98,-10.4,2.2,10.67
0.0,0.0,1975,-1.02,-10.36,2.16,10.63
0.0,0.0,1971,-0.98,-10.4,2.2,10.67
0.0,0.0,1968,-0.98,-10.4,2.24,10.68
0.0,0.0,1976,-0.94,-10.4,2.2,10.67
0.0,0.0,1960,-0.98,-10.4,2.16,10.66
0.0,0.0,1953,-0.94,-10.4,2.2,10.67
0.0,0.0,1968,-0.98,-10.36,2.24,10.64
0.0,0.0,1975,-0.98,-10.4,2.24,10.68
0.0,0.0,1961,-0.98,-10.4,2.28,10.69
0.0,0.0,1992,-0.9,-10.36,2.2,10.62
0.0,0.0,1978,-0.98,-10.4,2.16,10.66
0.0,0.0,1976,-0.94,-10.43,2.24,10.71
0.0,0.0,1969,-0.94,-10.36,2.24,10.64
0.0,0.0,1967,-0.94,-10.4,2.2,10.67
0.0,0.0,1977,-0.94,-10.36,2.35,10.66
0.0,0.0,1978,-0.94,-10.4,2.24,10.67
0.0,0.0,1966,-0.98,-10.4,2.24,10.68
0.0,0.0,1970,-0.9,-10.4,2.28,10.68
0.0,0.0,1998,-0.94,-10.4,2.2,10.67
0.0,0.0,1971,-0.94,-10.4,2.24,10.67
0.0,0.0,1976,-0.98,-10.36,2.2,10.63
0.0,0.0,1971,-0.98,-10.4,2.31,10.69
0.0,0.0,1975,-0.98,-10.4,2.24,10.68
0.0,0.0,1972,-0.9,-10.4,2.2,10.66
0.0,0.0,1971,-0.94,-10.4,2.24,10.67
0.0,0.0,1974,-0.98,-10.36,2.2,10.63
0.0,0.0,1955,-1.02,-10.36,2.2,10.64
0.0,0.0,1972,-1.02,-10.4,2.24,10.68
0.0,0.0,1983,-0.94,-10.43,2.2,10.7
0.0,0.0,1976,-0.98,-10.4,2.28,10.69
0.0,0.0,1974,-0.94,-10.4,2.28,10.68
0.0,0.0,1995,-0.94,-10.4,2.16,10.66
0.0,0.0,1980,-0.94,-10.4,2.16,10.66
0.0,0.0,1978,-0.94,-10.4,2.24,10.67
0.0,0.0,1976,-0.94,-10.36,2.24,10.64
0.0,0.0,1971,-0.98,-10.36,2.2,10.63
0.0,0.0,1974,-0.98,-10.36,2.24,10.64
0.0,0.0,1965,-0.94,-10.36,2.2,10.63
0.0,0.0,1971,-0.98,-10.4,2.2,10.67
0.0,0.0,1975,-0.98,-10.36,2.28,10.65
0.0,0.0,1977,-0.98,-10.4,2.24,10.68
0.0,0.0,1963,-0.94,-10.4,2.16,10.66
0.0,0.0,1955,-0.94,-10.43,2.31,10.73
0.0,0.0,1970,-0.94,-10.4,2.24,10.67
0.0,0.0,1977,-0.94,-10.4,2.24,10.67
0.0,0.0,1980,-0.98,-10.36,2.2,10.63
0.0,0.0,1971,-0.98,-10.43,2.2,10.71
0.0,0.0,1969,-0.94,-10.4,2.2,10.67
0.0,0.0,1979,-0.94,-10.4,2.24,10.67
0.0,0.0,1975,-0.94,-10.4,2.28,10.68
0.0,0.0,1975,-0.98,-10.36,2.2,10.63
0.0,0.0,1984,-0.94,-10.43,2.28,10.72
0.0,0.0,1984,-0.94,-10.4,2.2,10.67
0.0,0.0,1972,-0.98,-10.4,2.28,10.69
0.0,0.0,1997,-0.86,-10.47,2.24,10.74
0.0,0.0,1983,-0.94,-10.43,2.2,10.7
0.0,0.0,1979,-0.98,-10.36,2.28,10.65
0.0,0.0,1971,-0.9,-10.36,2.2,10.62
0.0,0.0,1965,-0.98,-10.4,2.2,10.67
0.0,0.0,1970,-0.94,-10.4,2.28,10.68
0.0,0.0,1981,-0.94,-10.43,2.24,10.71
0.0,0.0,1980,-0.98,-10.43,2.24,10.72
0.0,0.0,1979,-0.9,-10.4,2.31,10.69
0.0,0.0,1974,-0.94,-10.43,2.24,10.71
0.0,0.0,1977,-0.94,-10.4,2.2,10.67
0.0,0.0,1965,-0.98,-10.4,2.2,10.67
0.0,0.0,1963,-0.94,-10.4,2.2,10.67
0.0,0.0,1972,-1.02,-10.36,2.28,10.65
0.0,0.0,1966,-0.98,-10.4,2.16,10.66
0.0,0.0,1972,-0.94,-10.4,2.28,10.68
0.0,0.0,1973,-0.98,-10.32,2.24,10.6
0.0,0.0,1967,-0.94,-10.4,2.28,10.68
0.0,0.0,1985,-0.98,-10.4,2.24,10.68
0.0,0.0,1946,-0.94,-10.4,2.24,10.67
0.0,0.0,1970,-0.9,-10.36,2.2,10.62
0.0,0.0,1965,-0.94,-10.36,2.24,10.64
0.0,0.0,1974,-0.94,-10.4,2.2,10.67
0.0,0.0,1983,-0.98,-10.4,2.24,10.68
0.0,0.0,1951,-0.94,-10.4,2.2,10.67
0.0,0.0,1955,-0.82,-10.4,2.2,10.66
0.0,0.0,1962,-0.98,-10.36,2.2,10.63
0.0,0.0,1962,-0.94,-10.36,2.24,10.64
0.0,0.0,1988,-0.98,-10.4,2.2,10.67
0.0,0.0,1985,-0.9,-10.4,2.16,10.65
0.0,0.0,1962,-0.94,-10.4,2.24,10.67
0.0,0.0,1974,-0.98,-10.36,2.24,10.64
0.0,0.0,1972,-0.98,-10.36,2.24,10.64
0.0,0.0,1970,-0.94,-10.43,2.28,10.72
0.0,0.0,1957,-0.9,-10.43,2.24,10.71
0.0,0.0,1943,-0.94,-10.4,2.2,10.67
0.0,0.0,1962,-0.94,-10.4,2.16,10.66
0.0,0.0,1967,-0.94,-10.36,2.24,10.64
0.0,0.0,1958,-0.9,-10.43,2.24,10.71
0.0,0.0,1957,-0.94,-10.4,2.28,10.68
0.0,0.0,1956,-0.94,-10.28,2.2,10.55
0.0,0.0,1960,-0.9,-10.43,2.24,10.71
0.0,0.0,1968,-0.94,-10.4,2.24,10.67
0.0,0.0,1963,-0.9,-10.4,2.2,10.66
0.0,0.0,1952,-0.94,-10.4,2.2,10.67
0.0,0.0,1960,-0.9,-10.51,2.28,10.79
0.0,0.0,1966,-0.9,-10.4,2.24,10.67
0.0,0.0,1949,-0.94,-10.4,2.24,10.67
0.0,0.0,1946,-0.94,-10.43,2.28,10.72
0.0,0.0,1962,-0.94,-10.4,2.16,10.66
0.0,0.0,1965,-0.9,-10.4,2.24,10.67
0.0,0.0,1955,-0.9,-10.4,2.2,10.66
0.0,0.0,1958,-0.94,-10.43,2.28,10.72
0.0,0.0,1964,-0.9,-10.36,2.24,10.63
0.0,0.0,1959,-0.86,-10.4,2.24,10.67
0.0,0.0,1961,-0.94,-10.4,2.16,10.66
0.0,0.0,1982,-0.98,-10.4,2.16,10.66
0.0,0.0,1985,-0.9,-10.43,2.2,10.7
0.0,0.0,1959,-0.9,-10.4,2.2,10.66
0.0,0.0,1969,-0.9,-10.43,2.2,10.7
0.0,0.0,1962,-0.9,-10.43,2.2,10.7
0.0,0.0,1965,-0.98,-10.36,2.12,10.62
0.0,0.0,1958,-0.9,-10.4,2.2,10.66
0.0,0.0,1961,-0.94,-10.4,2.28,10.68
0.0,0.0,1994,-0.9,-10.4,2.24,10.67
0.0,0.0,1988,-0.94,-10.4,2.24,10.67
0.0,0.0,1955,-0.9,-10.32,2.28,10.6
0.0,0.0,1964,-0.98,-10.36,2.24,10.64
0.0,0.0,1963,-0.94,-10.43,2.28,10.72
0.0,0.0,1984,-0.86,-10.47,2.24,10.74
0.0,0.0,1965,-0.94,-10.4,2.24,10.67
0.0,0.0,1954,-0.9,-10.43,2.28,10.72
0.0,0.0,1950,-0.9,-10.4,2.24,10.67
0.0,0.0,1957,-0.94,-10.4,2.24,10.67
0.0,0.0,1962,-0.98,-10.36,2.16,10.62
0.0,0.0,1955,-0.94,-10.4,2.2,10.67
0.0,0.0,1951,-0.94,-10.36,2.2,10.63
0.0,0.0,1935,-0.94,-10.36,2.24,10.64
0.0,0.0,1968,-0.9,-10.43,2.24,10.71
0.0,0.0,1967,-0.94,-10.4,2.24,10.67
0.0,0.0,1962,-0.94,-10.43,2.2,10.7
0.0,0.0,1977,-0.94,-10.47,2.2,10.74
0.0,0.0,2000,-0.98,-10.4,2.24,10.68
0.0,0.0,1956,-0.86,-10.43,2.24,10.71
0.0,0.0,1961,-0.98,-10.4,2.24,10.68
0.0,0.0,1981,-0.98,-10.43,2.24,10.72
0.0,0.0,1962,-0.98,-10.36,2.2,10.63
0.0,0.0,1960,-0.86,-10.4,2.2,10.66
0.0,0.0,2005,-0.98,-10.4,2.2,10.67
0.0,0.0,1973,-0.9,-10.4,2.2,10.66
0.0,0.0,1970,-0.94,-10.4,2.24,10.67
0.0,0.0,1979,-0.94,-10.4,2.24,10.67
0.0,0.0,1977,-0.9,-10.4,2.28,10.68
0.0,0.0,1963,-0.9,-10.43,2.2,10.7
0.0,0.0,1966,-0.82,-10.43,2.16,10.69
0.0,0.0,1955,-0.94,-10.4,2.24,10.67
0.0,0.0,1957,-0.9,-10.4,2.2,10.66
0.0,0.0,1958,-0.94,-10.4,2.31,10.69
0.0,0.0,1955,-0.82,-10.4,2.31,10.68
0.0,0.0,1959,-0.94,-10.36,2.24,10.64
0.0,0.0,1977,-0.94,-10.4,2.24,10.67
0.0,0.0,1955,-0.94,-10.36,2.24,10.64
0.0,0.0,1943,-0.9,-10.4,2.28,10.68
0.0,0.0,1968,-0.86,-10.4,2.2,10.66
0.0,0.0,1969,-0.94,-10.4,2.2,10.67
0.0,0.0,1981,-0.9,-10.4,2.2,10.66
0.0,0.0,1957,-0.9,-10.4,2.16,10.65
0.0,0.0,1963,-0.94,-10.36,2.24,10.64
0.0,0.0,1966,-0.98,-10.4,2.16,10.66
0.0,0.0,1969,-0.94,-10.4,2.2,10.67
0.0,0.0,1962,-0.9,-10.36,2.2,10.62
0.0,0.0,1985,-0.9,-10.4,2.24,10.67
0.0,0.0,1958,-0.94,-10.4,2.24,10.67
0.0,0.0,1955,-0.86,-10.4,2.28,10.68
0.0,0.0,1969,-0.9,-10.4,2.24,10.67
0.0,0.0,1966,-0.82,-10.36,2.28,10.63
0.0,0.0,1965,-0.9,-10.4,2.28,10.68
0.0,0.0,1990,-1.06,-10.4,2.24,10.69
0.0,0.0,1941,-0.9,-10.43,2.24,10.71
0.0,0.0,1968,-0.94,-10.4,2.2,10.67
0.0,0.0,1965,-0.86,-10.4,2.24,10.67
0.0,0.0,1963,-0.9,-10.43,2.2,10.7
0.0,0.0,1988,-0.94,-10.4,2.24,10.67
0.0,0.0,1946,-0.86,-10.36,2.24,10.63
0.0,0.0,1966,-0.9,-10.4,2.12,10.65
0.0,0.0,1964,-0.94,-10.36,2.16,10.62
0.0,0.0,1960,-0.9,-10.36,2.2,10.62
0.0,0.0,1960,-0.94,-10.36,2.2,10.63
0.0,0.0,1959,-0.94,-10.4,2.2,10.67
0.0,0.0,1981,-0.9,-10.4,2.28,10.68
0.0,0.0,1938,-0.9,-10.4,2.12,10.65
0.0,0.0,1970,-0.94,-10.4,2.24,10.67
0.0,0.0,1965,-0.94,-10.36,2.24,10.64
0.0,0.0,1970,-0.94,-10.4,2.2,10.67
0.0,0.0,1962,-0.9,-10.4,2.16,10.65
0.0,0.0,1943,-0.9,-10.4,2.2,10.66
0.0,0.0,1957,-0.9,-10.4,2.24,10.67
0.0,0.0,1963,-0.9,-10.32,2.2,10.59
0.0,0.0,1962,-0.9,-10.4,2.12,10.65
0.0,0.0,1968,-0.9,-10.43,2.28,10.72
0.0,0.0,1958,-0.94,-10.4,2.2,10.67
0.0,0.0,1956,-0.9,-10.36,2.28,10.64
0.0,0.0,1983,-0.86,-10.43,2.16,10.69
0.0,0.0,1954,-0.9,-10.4,2.2,10.66
0.0,0.0,1969,-0.9,-10.4,2.2,10.66
0.0,0.0,1951,-0.9,-10.4,2.16,10.65
0.0,0.0,1961,-0.9,-10.4,2.24,10.67
0.0,0.0,1961,-0.9,-10.36,2.24,10.63
0.0,0.0,1955,-0.9,-10.4,2.24,10.67
0.0,0.0,1948,-0.86,-10.4,2.28,10.68
0.0,0.0,1964,-0.9,-10.36,2.24,10.63
0.0,0.0,1954,-0.9,-10.43,2.28,10.72
0.0,0.0,1964,-0.9,-10.4,2.2,10.66
0.0,0.0,1965,-0.9,-10.4,2.2,10.66
0.0,0.0,1956,-0.9,-10.4,2.28,10.68
0.0,0.0,1951,-0.9,-10.4,2.28,10.68
0.0,0.0,1966,-0.9,-10.43,2.24,10.71
0.0,0.0,1976,-0.98,-10.4,2.24,10.68
0.0,0.0,1953,-0.9,-10.43,2.2,10.7
0.0,0.0,1966,-0.94,-10.4,2.24,10.67
0.0,0.0,1990,-0.86,-10.4,2.2,10.66
0.0,0.0,1941,-0.86,-10.4,2.2,10.66
0.0,0.0,1963,-0.9,-10.43,2.2,10.7
0.0,0.0,1964,-0.9,-10.4,2.24,10.67
0.0,0.0,1957,-0.9,-10.4,2.2,10.66
0.0,0.0,1957,-0.86,-10.36,2.2,10.62
0.0,0.0,1966,-0.94,-10.4,2.24,10.67
0.0,0.0,1958,-0.9,-10.43,2.28,10.72
0.0,0.0,1962,-0.9,-10.43,2.16,10.69
0.0,0.0,1965,-0.9,-10.43,2.24,10.71
0.0,0.0,1969,-0.86,-10.4,2.24,10.67
0.0,0.0,1961,-0.86,-10.4,2.16,10.65
0.0,0.0,1958,-0.9,-10.43,2.24,10.71
0.0,0.0,1961,-0.9,-10.4,2.24,10.67
0.0,0.0,1961,-0.86,-10.36,2.24,10.63
0.0,0.0,1957,-0.9,-10.4,2.2,10.66
0.0,0.0,1971,-0.86,-10.4,2.16,10.65
0.0,0.0,1988,-0.9,-10.36,2.2,10.62
0.0,0.0,1954,-0.86,-10.4,2.2,10.66
0.0,0.0,1978,-0.9,-10.43,2.24,10.71
0.0,0.0,1966,-0.9,-10.4,2.2,10.66
0.0,0.0,1969,-0.9,-10.43,2.24,10.71
0.0,0.0,1966,-0.86,-10.4,2.12,10.64
0.0,0.0,1979,-0.9,-10.36,2.2,10.62
0.0,0.0,1957,-0.94,-10.4,2.2,10.67
0.0,0.0,1972,-0.9,-10.4,2.2,10.66
0.0,0.0,1969,-0.9,-10.43,2.2,10.7
0.0,0.0,1960,-0.94,-10.43,2.16,10.7
0.0,0.0,1962,-0.86,-10.4,2.16,10.65
0.0,0.0,1962,-0.9,-10.4,2.24,10.67
0.0,0.0,1958,-0.9,-10.4,2.24,10.67
0.0,0.0,1965,-0.86,-10.43,2.28,10.71
0.0,0.0,1940,-0.82,-10.4,2.16,10.65
0.0,0.0,1963,-0.86,-10.4,2.28,10.68
0.0,0.0,1963,-0.9,-10.36,2.28,10.64
0.0,0.0,1978,-0.94,-10.4,2.16,10.66
0.0,0.0,1972,-0.9,-10.4,2.24,10.67
0.0,0.0,1964,-0.86,-10.43,2.24,10.71
0.0,0.0,1962,-0.94,-10.43,2.16,10.7
0.0,0.0,1955,-0.94,-10.43,2.24,10.71
0.0,0.0,1964,-0.9,-10.4,2.16,10.65
0.0,0.0,1963,-0.94,-10.4,2.16,10.66
0.0,0.0,1982,-0.9,-10.36,2.24,10.63
0.0,0.0,1972,-0.82,-10.43,2.2,10.69
0.0,0.0,1985,-0.9,-10.4,2.2,10.66
0.0,0.0,1957,-0.86,-10.4,2.31,10.68
0.0,0.0,1964,-0.86,-10.4,2.24,10.67
0.0,0.0,1978,-0.9,-10.36,2.24,10.63
0.0,0.0,1957,-0.94,-10.36,2.24,10.64
0.0,0.0,1975,-0.9,-10.4,2.2,10.66
0.0,0.0,1978,-0.9,-10.36,2.24,10.63
0.0,0.0,1995,-0.9,-10.4,2.16,10.65
0.0,0.0,2002,-0.82,-10.43,2.24,10.7
0.0,0.0,1988,-0.82,-10.4,2.24,10.66
0.0,0.0,1987,-0.86,-10.36,2.28,10.64
0.0,0.0,2000,-0.9,-10.4,2.16,10.65
0.0,0.0,1995,-0.9,-10.4,2.2,10.66
0.0,0.0,1981,-0.86,-10.36,2.24,10.63
0.0,0.0,2001,-0.86,-10.36,2.24,10.63
0.0,0.0,1981,-0.9,-10.4,2.2,10.66
0.0,0.0,1984,-0.86,-10.4,2.2,10.66
0.0,0.0,1980,-0.82,-10.43,2.24,10.7
0.0,0.0,1978,-0.9,-10.43,2.24,10.71
0.0,0.0,1978,-0.9,-10.4,2.24,10.67
0.0,0.0,1975,-0.86,-10.4,2.2,10.66
0.0,0.0,1980,-0.94,-10.4,2.2,10.67
0.0,0.0,1990,-0.86,-10.43,2.24,10.71
0.0,0.0,1974,-0.9,-10.4,2.24,10.67
0.0,0.0,1981,-0.9,-10.43,2.08,10.68
0.0,0.0,1994,-0.9,-10.36,2.2,10.62
0.0,0.0,1986,-0.82,-10.4,2.24,10.66
0.0,0.0,1984,-0.86,-10.4,2.2,10.66
0.0,0.0,1977,-0.82,-10.36,2.28,10.63
0.0,0.0,2019,-0.9,-10.4,2.28,10.68
0.0,0.0,2004,-0.86,-10.43,2.24,10.71
0.0,0.0,1985,-0.86,-10.4,2.31,10.68
0.0,0.0,1995,-0.9,-10.4,2.28,10.68
0.0,0.0,1987,-0.9,-10.4,2.2,10.66
0.0,0.0,1967,-0.9,-10.36,2.28,10.64
0.0,0.0,1977,-0.86,-10.43,2.2,10.7
0.0,0.0,1983,-0.9,-10.4,2.2,10.66
0.0,0.0,1971,-0.9,-10.4,2.24,10.67
0.0,0.0,1975,-0.86,-10.36,2.2,10.62
0.0,0.0,1985,-0.86,-10.36,2.16,10.61
0.0,0.0,1981,-0.86,-10.4,2.16,10.65
0.0,0.0,2008,-0.9,-10.4,2.2,10.66
0.0,0.0,1986,-0.9,-10.4,2.2,10.66
0.0,0.0,1984,-0.9,-10.4,2.2,10.66
0.0,0.0,1983,-0.86,-10.43,2.2,10.7
0.0,0.0,1983,-0.86,-10.43,2.31,10.72
0.0,0.0,1983,-0.9,-10.36,2.2,10.62
0.0,0.0,1967,-0.86,-10.43,2.2,10.7
0.0,0.0,1985,-0.86,-10.4,2.24,10.67
0.0,0.0,1986,-0.9,-10.4,2.24,10.67
0.0,0.0,2003,-0.9,-10.36,2.24,10.63
0.0,0.0,1985,-0.86,-10.4,2.28,10.68
0.0,0.0,1973,-0.86,-10.4,2.24,10.67
0.0,0.0,1985,-0.9,-10.32,2.2,10.59
0.0,0.0,2008,-0.86,-10.43,2.2,10.7
0.0,0.0,1987,-0.9,-10.4,2.2,10.66
0.0,0.0,1982,-0.86,-10.43,2.2,10.7
0.0,0.0,1985,-0.86,-10.36,2.2,10.62
0.0,0.0,1965,-0.94,-10.4,2.2,10.67
0.0,0.0,1984,-0.86,-10.4,2.2,10.66
0.0,0.0,1980,-0.86,-10.43,2.24,10.71
0.0,0.0,1978,-0.86,-10.43,2.2,10.7
0.0,0.0,1980,-0.86,-10.43,2.28,10.71
0.0,0.0,1984,-0.86,-10.4,2.24,10.67
0.0,0.0,1965,-0.86,-10.4,2.2,10.66
0.0,0.0,1984,-0.86,-10.4,2.24,10.67
0.0,0.0,1992,-0.86,-10.4,2.2,10.66
0.0,0.0,1978,-0.86,-10.43,2.2,10.7
0.0,0.0,1962,-0.86,-10.4,2.2,10.66
0.0,0.0,1970,-0.86,-10.4,2.24,10.67
0.0,0.0,1979,-0.86,-10.43,2.24,10.71
0.0,0.0,1988,-0.86,-10.4,2.24,10.67
0.0,0.0,1984,-0.9,-10.4,2.2,10.66
0.0,0.0,1977,-0.86,-10.36,2.16,10.61
0.0,0.0,1952,-0.82,-10.43,2.16,10.69
0.0,0.0,1973,-0.86,-10.4,2.24,10.67
0.0,0.0,1955,-0.86,-10.43,2.24,10.71
0.0,0.0,2004,-0.86,-10.43,2.24,10.71
0.0,0.0,2021,-0.86,-10.43,2.31,10.72
0.0,0.0,1977,-0.78,-10.47,2.16,10.72
0.0,0.0,2019,-0.9,-10.32,2.39,10.63
0.0,0.0,1997,-0.86,-10.36,2.24,10.63
0.0,0.0,1979,-0.9,-10.4,2.16,10.65
0.0,0.0,1973,-0.9,-10.4,2.2,10.66
0.0,0.0,1980,-0.86,-10.4,2.24,10.67
0.0,0.0,1983,-0.86,-10.36,2.2,10.62
0.0,0.0,2016,-0.86,-10.36,2.28,10.64
0.0,0.0,1972,-0.86,-10.28,2.16,10.54
0.0,0.0,1994,-0.82,-10.43,2.2,10.69
0.0,0.0,1984,-0.82,-10.4,2.2,10.66
0.0,0.0,1987,-0.9,-10.36,2.24,10.63
0.0,0.0,1997,-0.86,-10.4,2.28,10.68
0.0,0.0,1992,-0.86,-10.4,2.28,10.68
0.0,0.0,1955,-0.9,-10.43,2.28,10.72
0.0,0.0,1989,-0.86,-10.43,2.12,10.68
0.0,0.0,1985,-0.82,-10.43,2.24,10.7
0.0,0.0,1975,-0.86,-10.4,2.28,10.68
0.0,0.0,1967,-0.9,-10.4,2.2,10.66
0.0,0.0,1987,-0.86,-10.47,2.2,10.74
0.0,0.0,1987,-0.86,-10.36,2.08,10.6
0.0,0.0,1963,-0.82,-10.43,2.28,10.71
0.0,0.0,1980,-0.9,-10.36,2.28,10.64
0.0,0.0,1974,-0.86,-10.43,2.2,10.7
0.0,0.0,1986,-0.9,-10.4,2.28,10.68
0.0,0.0,1943,-0.86,-10.36,2.16,10.61
0.0,0.0,1969,-0.9,-10.4,2.24,10.67
0.0,0.0,1968,-0.9,-10.4,2.16,10.65
0.0,0.0,1971,-0.86,-10.43,2.2,10.7
0.0,0.0,1980,-0.9,-10.43,2.2,10.7
0.0,0.0,1964,-0.82,-10.43,2.2,10.69
0.0,0.0,1973,-0.86,-10.43,2.24,10.71
0.0,0.0,1976,-0.86,-10.36,2.28,10.64
0.0,0.0,1968,-0.82,-10.4,2.2,10.66
0.0,0.0,1965,-0.82,-10.47,2.24,10.74
0.0,0.0,1971,-0.9,-10.43,2.24,10.71
0.0,0.0,1979,-0.9,-10.4,2.31,10.69
0.0,0.0,1963,-0.82,-10.47,2.28,10.75
0.0,0.0,1995,-0.86,-10.43,2.2,10.7
0.0,0.0,1993,-0.86,-10.4,2.24,10.67
0.0,0.0,1980,-0.86,-10.4,2.16,10.65
0.0,0.0,1961,-0.86,-10.43,2.24,10.71
0.0,0.0,1957,-0.82,-10.4,2.2,10.66
0.0,0.0,1988,-0.86,-10.43,2.2,10.7
0.0,0.0,2008,-0.86,-10.36,2.28,10.64
0.0,0.0,2002,-0.82,-10.4,2.2,10.66
0.0,0.0,1967,-0.82,-10.4,2.24,10.66
0.0,0.0,1957,-0.86,-10.47,2.24,10.74
0.0,0.0,1973,-0.82,-10.36,2.24,10.63
0.0,0.0,2022,-0.86,-10.43,2.24,10.71
0.0,0.0,2009,-0.86,-10.43,2.28,10.71
0.0,0.0,1993,-0.86,-10.43,2.24,10.71
0.0,0.0,1976,-0.86,-10.43,2.24,10.71
0.0,0.0,1953,-0.86,-10.51,2.24,10.78
0.0,0.0,1990,-0.86,-10.43,2.24,10.71
0.0,0.0,2004,-0.86,-10.43,2.28,10.71
0.0,0.0,1988,-0.86,-10.4,2.24,10.67
0.0,0.0,1966,-0.82,-10.4,2.2,10.66
0.0,0.0,2000,-0.86,-10.4,2.08,10.64
0.0,0.0,1970,-0.86,-10.4,2.16,10.65
0.0,0.0,1975,-0.82,-10.4,2.2,10.66
0.0,0.0,1984,-0.82,-10.4,2.28,10.67
0.0,0.0,1992,-0.82,-10.47,2.2,10.73
0.0,0.0,1988,-0.82,-10.43,2.2,10.69
0.0,0.0,1979,-0.82,-10.43,2.2,10.69
0.0,0.0,2007,-0.82,-10.4,2.2,10.66
0.0,0.0,1983,-0.82,-10.36,2.2,10.62
0.0,0.0,1983,-0.82,-10.43,2.24,10.7
0.0,0.0,1974,-0.86,-10.43,2.16,10.69
0.0,0.0,1999,-0.86,-10.36,2.24,10.63
0.0,0.0,1981,-0.86,-10.4,2.2,10.66
0.0,0.0,1979,-0.82,-10.4,2.24,10.66
0.0,0.0,1977,-0.78,-10.4,2.12,10.64
0.0,0.0,1977,-0.82,-10.43,2.24,10.7
0.0,0.0,1978,-0.82,-10.4,2.2,10.66
0.0,0.0,1993,-0.86,-10.4,2.24,10.67
0.0,0.0,1958,-0.82,-10.4,2.2,10.66
0.0,0.0,1982,-0.86,-10.4,2.2,10.66
0.0,0.0,1968,-0.86,-10.4,1.88,10.6
0.0,0.0,1974,-0.82,-10.43,2.24,10.7
0.0,0.0,2004,-0.82,-10.43,2.2,10.69
0.0,0.0,1970,-0.82,-10.47,2.24,10.74
0.0,0.0,1982,-0.86,-10.4,2.2,10.66
0.0,0.0,1981,-0.78,-10.43,2.24,10.7
0.0,0.0,1985,-0.82,-10.36,2.24,10.63
0.0,0.0,1980,-0.82,-10.4,2.2,10.66
0.0,0.0,2015,-0.86,-10.36,2.28,10.64
0.0,0.0,1986,-0.86,-10.36,2.24,10.63
0.0,0.0,1981,-0.86,-10.4,2.2,10.66
0.0,0.0,1983,-0.86,-10.4,2.24,10.67
0.0,0.0,1998,-0.82,-10.4,2.24,10.66
0.0,0.0,1979,-0.86,-10.4,2.2,10.66
0.0,0.0,1981,-0.86,-10.4,2.2,10.66
0.0,0.0,1984,-0.86,-10.43,2.2,10.7
0.0,0.0,1977,-0.82,-10.4,2.2,10.66
0.0,0.0,1977,-0.86,-10.43,2.28,10.71
0.0,0.0,1979,-0.86,-10.43,2.24,10.71
0.0,0.0,1988,-0.86,-10.36,2.24,10.63
0.0,0.0,1983,-0.82,-10.4,2.24,10.66
0.0,0.0,1974,-0.86,-10.4,2.24,10.67
0.0,0.0,1981,-0.82,-10.4,2.24,10.66
0.0,0.0,1978,-0.82,-10.43,2.16,10.69
0.0,0.0,1982,-0.78,-10.4,2.24,10.66
0.0,0.0,1976,-0.82,-10.43,2.2,10.69
0.0,0.0,1978,-0.82,-10.4,2.24,10.66
0.0,0.0,1980,-0.82,-10.47,2.16,10.73
0.0,0.0,1986,-0.82,-10.43,2.24,10.7
0.0,0.0,1968,-0.82,-10.43,2.24,10.7
0.0,0.0,1977,-0.82,-10.43,2.16,10.69
0.0,0.0,1984,-0.82,-10.4,2.24,10.66
0.0,0.0,1993,-0.78,-10.43,2.24,10.7
0.0,0.0,1977,-0.82,-10.4,2.16,10.65
0.0,0.0,1978,-0.82,-10.43,2.24,10.7
0.0,0.0,1981,-0.78,-10.4,2.24,10.66
0.0,0.0,1985,-0.86,-10.4,2.2,10.66
0.0,0.0,1974,-0.78,-10.47,2.24,10.74
0.0,0.0,1975,-0.82,-10.4,2.24,10.66
0.0,0.0,1980,-0.86,-10.4,2.24,10.67
0.0,0.0,2003,-0.86,-10.36,2.24,10.63
0.0,0.0,1971,-0.82,-10.4,2.2,10.66
0.0,0.0,1984,-0.86,-10.43,2.24,10.71
0.0,0.0,1969,-0.82,-10.43,2.2,10.69
0.0,0.0,1980,-0.86,-10.43,2.24,10.71
0.0,0.0,1984,-0.82,-10.4,2.2,10.66
0.0,0.0,2020,-0.9,-10.43,2.2,10.7
0.0,0.0,1980,-0.86,-10.36,2.24,10.63
0.0,0.0,1976,-0.82,-10.4,2.35,10.69
0.0,0.0,1980,-0.86,-10.43,2.24,10.71
0.0,0.0,1982,-0.82,-10.4,2.28,10.67
0.0,0.0,1979,-0.86,-10.36,2.2,10.62
0.0,0.0,1984,-0.82,-10.43,2.16,10.69
0.0,0.0,1986,-0.9,-10.4,2.28,10.68
0.0,0.0,1977,-0.82,-10.43,2.24,10.7
0.0,0.0,1981,-0.86,-10.43,2.28,10.71
0.0,0.0,1967,-0.82,-10.43,2.24,10.7
0.0,0.0,1985,-0.82,-10.4,2.16,10.65
0.0,0.0,1982,-0.82,-10.47,2.31,10.76
0.0,0.0,2015,-0.86,-10.36,2.24,10.63
0.0,0.0,1972,-0.82,-10.43,2.2,10.69
0.0,0.0,1984,-0.82,-10.43,2.16,10.69
0.0,0.0,1983,-0.86,-10.36,2.28,10.64
0.0,0.0,2002,-0.86,-10.4,2.2,10.66
0.0,0.0,1981,-0.82,-10.32,2.2,10.58
0.0,0.0,1983,-0.78,-10.43,2.2,10.69
0.0,0.0,1978,-0.82,-10.4,2.24,10.66
0.0,0.0,1987,-0.82,-10.4,2.24,10.66
0.0,0.0,1964,-0.82,-10.4,2.2,10.66
0.0,0.0,1978,-0.86,-10.4,2.2,10.66
0.0,0.0,1983,-0.82,-10.43,2.16,10.69
0.0,0.0,1992,-0.82,-10.43,2.2,10.69
0.0,0.0,1970,-0.82,-10.43,2.28,10.71
0.0,0.0,1988,-0.86,-10.4,2.16,10.65
0.0,0.0,1987,-0.86,-10.43,2.2,10.7
0.0,0.0,1983,-0.86,-10.43,2.28,10.71
0.0,0.0,1991,-0.86,-10.36,2.24,10.63
0.0,0.0,1968,-0.78,-10.47,2.24,10.74
0.0,0.0,1985,-0.82,-10.4,2.28,10.67
0.0,0.0,1986,-0.82,-10.4,2.28,10.67
0.0,0.0,1979,-0.78,-10.36,2.24,10.62
0.0,0.0,1971,-0.9,-10.55,2.24,10.82
0.0,0.0,1982,-0.86,-10.36,2.2,10.62
0.0,0.0,1994,-0.86,-10.4,2.24,10.67
0.0,0.0,1984,-0.78,-10.4,2.24,10.66
0.0,0.0,1991,-0.86,-10.4,2.24,10.67
0.0,0.0,1991,-1.02,-10.4,2.31,10.7
0.0,0.0,1979,-0.82,-10.43,2.2,10.69
0.0,0.0,1983,-0.82,-10.43,2.24,10.7
0.0,0.0,1988,-0.82,-10.43,2.2,10.69
0.0,0.0,1992,-0.82,-10.4,2.24,10.66
0.0,0.0,1992,-0.82,-10.4,2.24,10.66
0.0,0.0,1988,-0.82,-10.43,2.2,10.69
0.0,0.0,1985,-0.82,-10.47,2.2,10.73
0.0,0.0,1992,-0.82,-10.43,2.2,10.69
0.0,0.0,1987,-0.86,-10.4,2.24,10.67
0.0,0.0,1985,-0.82,-10.4,2.24,10.66
0.0,0.0,1988,-0.82,-10.43,2.2,10.69
0.0,0.0,1977,-0.82,-10.4,2.24,10.66
0.0,0.0,2009,-0.82,-10.4,2.24,10.66
0.0,0.0,1972,-0.82,-10.4,2.28,10.67
0.0,0.0,1990,-0.82,-10.4,2.24,10.66
0.0,0.0,1992,-0.82,-10.43,2.2,10.69
0.0,0.0,1984,-0.82,-10.43,2.24,10.7
0.0,0.0,1978,-0.78,-10.43,2.24,10.7
0.0,0.0,1988,-0.78,-10.32,2.2,10.58
0.0,0.0,1993,-0.82,-10.43,2.24,10.7
0.0,0.0,1993,-0.82,-10.43,2.24,10.7
0.0,0.0,1992,-0.82,-10.4,2.2,10.66
0.0,0.0,1988,-0.86,-10.4,2.24,10.67
0.0,0.0,1992,-0.82,-10.36,2.2,10.62
0.0,0.0,1986,-0.86,-10.4,2.24,10.67
0.0,0.0,1992,-0.82,-10.43,2.16,10.69
0.0,0.0,1993,-0.82,-10.4,2.28,10.67
0.0,0.0,2002,-0.82,-10.43,2.2,10.69
0.0,0.0,1973,-0.86,-10.43,2.2,10.7
0.0,0.0,1971,-0.86,-10.43,2.2,10.7
0.0,0.0,1980,-0.82,-10.4,2.24,10.66
0.0,0.0,1981,-0.78,-10.43,2.2,10.69
0.0,0.0,1997,-0.78,-10.47,2.2,10.73
0.0,0.0,2005,-0.82,-10.4,2.24,10.66
0.0,0.0,2000,-0.82,-10.4,2.24,10.66
0.0,0.0,1982,-0.82,-10.4,2.2,10.66
0.0,0.0,1978,-0.86,-10.4,2.28,10.68
0.0,0.0,1982,-0.82,-10.4,2.2,10.66
0.0,0.0,1999,-0.86,-10.4,2.28,10.68
0.0,0.0,1975,-0.82,-10.43,2.24,10.7
0.0,0.0,1989,-0.86,-10.4,2.2,10.66
0.0,0.0,1972,-0.82,-10.43,2.31,10.72
0.0,0.0,1979,-0.86,-10.4,2.24,10.67
0.0,0.0,1981,-0.82,-10.4,2.28,10.67
0.0,0.0,1985,-0.82,-10.4,2.24,10.66
0.0,0.0,1965,-0.82,-10.4,2.24,10.66
0.0,0.0,1989,-0.82,-10.4,2.2,10.66
0.0,0.0,2001,-0.82,-10.47,2.2,10.73
0.0,0.0,1984,-0.86,-10.4,2.28,10.68
0.0,0.0,1989,-0.82,-10.43,2.2,10.69
0.0,0.0,1985,-0.82,-10.36,2.2,10.62
0.0,0.0,1983,-0.86,-10.43,2.24,10.71
0.0,0.0,1955,-0.82,-10.4,2.24,10.66
0.0,0.0,1985,-0.86,-10.43,2.24,10.71
0.0,0.0,1987,-0.86,-10.4,2.24,10.67
0.0,0.0,1987,-0.82,-10.43,2.2,10.69
0.0,0.0,1973,-0.82,-10.43,2.16,10.69
0.0,0.0,1988,-0.86,-10.4,2.2,10.66
0.0,0.0,1986,-0.86,-10.4,2.2,10.66
0.0,0.0,1990,-0.86,-10.4,2.24,10.67
0.0,0.0,1984,-0.82,-10.43,2.24,10.7
0.0,0.0,1996,-0.78,-10.43,2.16,10.68
0.0,0.0,1987,-0.82,-10.43,2.28,10.71
0.0,0.0,1986,-0.86,-10.4,2.2,10.66
0.0,0.0,1991,-0.75,-10.43,2.24,10.7
0.0,0.0,1976,-0.78,-10.43,2.24,10.7
0.0,0.0,1958,-0.82,-10.4,2.28,10.67
0.0,0.0,1980,-0.82,-10.4,2.2,10.66
0.0,0.0,1980,-0.82,-10.4,2.28,10.67
0.0,0.0,1990,-0.82,-10.4,2.2,10.66
0.0,0.0,2013,-0.82,-10.47,2.2,10.73
0.0,0.0,1986,-0.82,-10.4,2.2,10.66
0.0,0.0,1984,-0.82,-10.4,2.2,10.66
0.0,0.0,1997,-0.82,-10.4,2.28,10.67
0.0,0.0,1982,-0.82,-10.43,2.2,10.69
0.0,0.0,1986,-0.82,-10.4,2.24,10.66
0.0,0.0,1986,-0.78,-10.4,2.16,10.65
0.0,0.0,1976,-0.78,-10.4,2.24,10.66
0.0,0.0,1959,-0.78,-10.43,2.2,10.69
0.0,0.0,1983,-0.82,-10.43,2.2,10.69
0.0,0.0,1981,-0.78,-10.43,2.2,10.69
0.0,0.0,1979,-0.82,-10.4,2.16,10.65
0.0,0.0,1981,-0.78,-10.43,2.24,10.7
0.0,0.0,1968,-0.78,-10.43,2.28,10.71
0.0,0.0,1972,-0.86,-10.4,2.2,10.66
0.0,0.0,1984,-0.82,-10.4,2.24,10.66
0.0,0.0,1986,-0.82,-10.4,2.2,10.66
0.0,0.0,1985,-0.82,-10.43,2.24,10.7
0.0,0.0,2005,-0.82,-10.4,2.24,10.66
0.0,0.0,1959,-0.86,-10.43,2.24,10.71
0.0,0.0,1986,-0.78,-10.43,2.2,10.69
0.0,0.0,1985,-0.78,-10.4,2.24,10.66
0.0,0.0,1979,-0.82,-10.43,2.24,10.7
0.0,0.0,1988,-0.82,-10.36,2.16,10.61
0.0,0.0,1987,-0.82,-10.4,2.16,10.65
0.0,0.0,1973,-0.86,-10.43,2.2,10.7
0.0,0.0,1996,-0.82,-10.4,2.28,10.67
0.0,0.0,1980,-0.78,-10.36,2.28,10.63
0.0,0.0,2002,-0.82,-10.43,2.2,10.69
0.0,0.0,1985,-0.82,-10.47,2.28,10.75
0.0,0.0,1988,-0.82,-10.4,2.2,10.66
0.0,0.0,1991,-0.82,-10.4,2.28,10.67
0.0,0.0,1983,-0.82,-10.4,2.28,10.67
0.0,0.0,1978,-0.82,-10.4,2.2,10.66
0.0,0.0,1987,-0.82,-10.43,2.2,10.69
0.0,0.0,1988,-0.78,-10.43,2.24,10.7
0.0,0.0,1985,-0.82,-10.4,2.24,10.66
0.0,0.0,1974,-0.82,-10.4,2.24,10.66
0.0,0.0,1963,-0.82,-10.36,2.2,10.62
0.0,0.0,1962,-0.82,-10.36,2.2,10.62
0.0,0.0,1980,-0.82,-10.43,2.2,10.69
0.0,0.0,1987,-0.86,-10.43,2.31,10.72
0.0,0.0,1995,-0.82,-10.36,2.24,10.63
0.0,0.0,1986,-0.82,-10.4,2.24,10.66
0.0,0.0,1991,-0.71,-10.47,2.2,10.72
0.0,0.0,1978,-0.78,-10.43,2.28,10.71
0.0,0.0,1980,-0.78,-10.4,2.24,10.66
0.0,0.0,1991,-0.78,-10.43,2.16,10.68
0.0,0.0,1984,-0.78,-10.43,2.2,10.69
0.0,0.0,1995,-0.86,-10.4,2.2,10.66
0.0,0.0,1981,-0.82,-10.4,2.16,10.65
0.0,0.0,1986,-0.82,-10.4,2.24,10.66
0.0,0.0,1982,-0.82,-10.4,2.2,10.66
0.0,0.0,1984,-0.82,-10.43,2.16,10.69
0.0,0.0,1984,-0.67,-10.4,2.31,10.67
0.0,0.0,1985,-0.82,-10.4,2.16,10.65
0.0,0.0,1982,-0.82,-10.43,2.24,10.7
0.0,0.0,1978,-0.78,-10.4,2.28,10.67
0.0,0.0,1984,-0.86,-10.4,2.28,10.68
0.0,0.0,1979,-0.86,-10.4,2.24,10.67
0.0,0.0,1980,-0.82,-10.4,2.24,10.66
0.0,0.0,1999,-0.82,-10.47,2.24,10.74
0.0,0.0,1983,-0.86,-10.4,2.24,10.67
0.0,0.0,1979,-0.86,-10.4,2.16,10.65
0.0,0.0,1975,-0.78,-10.43,2.24,10.7
0.0,0.0,1982,-0.82,-10.4,2.24,10.66
0.0,0.0,1979,-0.78,-10.4,2.28,10.67
0.0,0.0,1977,-0.9,-10.47,2.12,10.72
0.0,0.0,1970,-0.82,-10.43,2.28,10.71
0.0,0.0,1987,-0.82,-10.4,2.2,10.66
0.0,0.0,1982,-0.78,-10.4,2.2,10.65
0.0,0.0,2012,-0.75,-10.4,2.24,10.66
0.0,0.0,1969,-0.82,-10.4,2.28,10.67
0.0,0.0,1976,-0.82,-10.4,2.24,10.66
0.0,0.0,1990,-0.86,-10.43,2.24,10.71
0.0,0.0,1975,-0.82,-10.43,2.24,10.7
0.0,0.0,1973,-0.75,-10.47,2.24,10.74
0.0,0.0,1971,-0.82,-10.4,2.2,10.66
0.0,0.0,1985,-0.82,-10.4,2.2,10.66
0.0,0.0,1981,-0.82,-10.47,2.2,10.73
0.0,0.0,1977,-0.78,-10.43,2.31,10.72
0.0,0.0,1977,-0.78,-10.43,2.2,10.69
0.0,0.0,1989,-0.82,-10.4,2.24,10.66
0.0,0.0,1967,-0.82,-10.4,2.2,10.66
0.0,0.0,1981,-0.78,-10.4,2.24,10.66
0.0,0.0,1973,-0.78,-10.51,2.2,10.77
0.0,0.0,1983,-0.82,-10.43,2.16,10.69
0.0,0.0,1982,-0.82,-10.43,2.2,10.69
0.0,0.0,1976,-0.82,-10.4,2.16,10.65
0.0,0.0,1982,-0.82,-10.4,2.24,10.66
0.0,0.0,1985,-0.78,-10.43,2.16,10.68
0.0,0.0,1983,-0.82,-10.4,2.28,10.67
0.0,0.0,1980,-0.75,-10.4,2.16,10.64
0.0,0.0,1987,-0.82,-10.4,2.28,10.67
0.0,0.0,1977,-0.82,-10.4,2.16,10.65
0.0,0.0,1981,-0.82,-10.4,2.28,10.67
0.0,0.0,2001,-0.82,-10.36,2.16,10.61
0.0,0.0,1981,-0.82,-10.4,2.2,10.66
0.0,0.0,1963,-0.9,-10.4,2.24,10.67
0.0,0.0,1981,-0.86,-10.36,2.2,10.62
0.0,0.0,1981,-0.82,-10.4,2.2,10.66
0.0,0.0,1998,-0.78,-10.4,2.2,10.65
0.0,0.0,1973,-0.82,-10.43,2.2,10.69
0.0,0.0,1984,-0.82,-10.43,2.24,10.7
0.0,0.0,2004,-0.75,-10.4,2.24,10.66
0.0,0.0,1976,-0.82,-10.43,2.2,10.69
0.0,0.0,1967,-0.78,-10.43,2.2,10.69
0.0,0.0,1980,-0.78,-10.47,2.2,10.73
0.0,0.0,2009,-0.82,-10.43,2.2,10.69
0.0,0.0,1971,-0.82,-10.4,2.16,10.65
0.0,0.0,1981,-0.78,-10.43,2.24,10.7
0.0,0.0,1983,-0.75,-10.4,2.24,10.66
0.0,0.0,1983,-0.78,-10.4,2.24,10.66
0.0,0.0,2011,-0.82,-10.43,2.16,10.69
0.0,0.0,1983,-0.78,-10.4,2.2,10.65
0.0,0.0,1985,-0.78,-10.4,2.24,10.66
0.0,0.0,1986,-0.82,-10.4,2.31,10.68
0.0,0.0,1979,-0.78,-10.43,2.2,10.69
0.0,0.0,1995,-0.78,-10.4,2.2,10.65
0.0,0.0,1964,-0.78,-10.4,2.2,10.65
0.0,0.0,1987,-0.82,-10.43,2.2,10.69
0.0,0.0,1973,-0.82,-10.4,2.16,10.65
0.0,0.0,1977,-0.82,-10.4,2.24,10.66
0.0,0.0,1977,-0.78,-10.4,2.2,10.65
0.0,0.0,1973,-0.78,-10.43,2.16,10.68
0.0,0.0,1975,-0.78,-10.4,2.24,10.66
0.0,0.0,1978,-0.78,-10.47,2.28,10.75
0.0,0.0,1976,-0.82,-10.36,2.2,10.62
0.0,0.0,1971,-0.67,-10.4,2.16,10.64
0.0,0.0,2000,-0.78,-10.36,2.28,10.63
0.0,0.0,1967,-0.82,-10.4,2.2,10.66
0.0,0.0,1978,-0.78,-10.4,2.2,10.65
0.0,0.0,1976,-0.78,-10.4,2.2,10.65
0.0,0.0,1981,-0.78,-10.36,2.28,10.63
0.0,0.0,1986,-0.86,-10.4,2.24,10.67
0.0,0.0,1992,-0.78,-10.43,2.24,10.7
0.0,0.0,1964,-0.86,-10.36,2.2,10.62
0.0,0.0,1972,-0.82,-10.4,2.24,10.66
0.0,0.0,1952,-0.78,-10.36,2.28,10.63
0.0,0.0,1966,-0.82,-10.4,2.2,10.66
0.0,0.0,1979,-0.78,-10.4,2.24,10.66
0.0,0.0,1955,-0.78,-10.4,2.16,10.65
0.0,0.0,1966,-0.78,-10.43,2.16,10.68
0.0,0.0,1959,-0.78,-10.43,2.2,10.69
0.0,0.0,1962,-0.78,-10.4,2.2,10.65
0.0,0.0,1987,-0.82,-10.43,2.28,10.71
0.0,0.0,1960,-0.78,-10.43,2.16,10.68
0.0,0.0,1959,-0.78,-10.4,2.2,10.65
0.0,0.0,1964,-0.75,-10.43,2.24,10.7
0.0,0.0,1969,-0.78,-10.4,2.2,10.65
0.0,0.0,1949,-0.78,-10.43,2.2,10.69
0.0,0.0,1963,-0.82,-10.4,2.12,10.64
0.0,0.0,1962,-0.78,-10.4,2.24,10.66
0.0,0.0,1966,-0.75,-10.4,2.16,10.64
0.0,0.0,1956,-0.82,-10.43,2.12,10.68
0.0,0.0,1962,-0.78,-10.43,2.28,10.71
0.0,0.0,1957,-0.75,-10.43,2.16,10.68
0.0,0.0,1958,-0.82,-10.4,2.2,10.66
0.0,0.0,1961,-0.75,-10.4,2.24,10.66
0.0,0.0,1963,-0.82,-10.4,2.2,10.66
0.0,0.0,1948,-0.75,-10.43,2.16,10.68
0.0,0.0,1966,-0.78,-10.43,2.2,10.69
0.0,0.0,1962,-0.78,-10.43,2.16,10.68
0.0,0.0,1957,-0.78,-10.43,2.2,10.69
0.0,0.0,1962,-0.75,-10.43,2.16,10.68
0.0,0.0,1960,-0.78,-10.36,2.16,10.61
0.0,0.0,1964,-0.78,-10.36,2.16,10.61
0.0,0.0,1974,-0.78,-10.43,2.28,10.71
0.0,0.0,1960,-0.78,-10.47,2.2,10.73
0.0,0.0,1966,-0.75,-10.43,2.2,10.69
0.0,0.0,1970,-0.75,-10.43,2.2,10.69
0.0,0.0,1968,-0.78,-10.4,2.24,10.66
0.0,0.0,1966,-0.78,-10.43,2.28,10.71
0.0,0.0,1963,-0.78,-10.47,2.24,10.74
0.0,0.0,1993,-0.82,-10.36,2.2,10.62
0.0,0.0,1965,-0.82,-10.43,2.2,10.69
0.0,0.0,1974,-0.82,-10.47,2.2,10.73
0.0,0.0,1992,-0.78,-10.4,2.2,10.65
0.0,0.0,1968,-0.82,-10.43,2.16,10.69
0.0,0.0,1972,-0.78,-10.4,2.24,10.66
0.0,0.0,1977,-0.78,-10.43,2.24,10.7
0.0,0.0,1975,-0.82,-10.43,2.2,10.69
0.0,0.0,1963,-0.82,-10.4,2.2,10.66
0.0,0.0,1998,-0.78,-10.43,2.2,10.69
0.0,0.0,1973,-0.78,-10.43,2.24,10.7
0.0,0.0,1990,-0.75,-10.4,2.28,10.67
0.0,0.0,1982,-0.86,-10.4,2.16,10.65
0.0,0.0,1974,-0.82,-10.36,2.2,10.62
0.0,0.0,1995,-0.86,-10.36,2.24,10.63
0.0,0.0,1981,-0.82,-10.43,2.16,10.69
0.0,0.0,1957,-0.78,-10.4,2.24,10.66
0.0,0.0,1983,-0.78,-10.43,2.2,10.69
0.0,0.0,1963,-0.78,-10.36,2.24,10.62
0.0,0.0,1966,-0.78,-10.4,2.28,10.67
0.0,0.0,1984,-0.78,-10.43,2.2,10.69
0.0,0.0,1959,-0.78,-10.63,2.16,10.88
0.0,0.0,1972,-0.78,-10.4,2.24,10.66
0.0,0.0,1965,-0.78,-10.4,2.16,10.65
0.0,0.0,1967,-0.78,-10.43,2.2,10.69
0.0,0.0,1992,-0.75,-10.43,2.2,10.69
0.0,0.0,1967,-0.78,-10.4,2.2,10.65
0.0,0.0,1964,-0.78,-10.43,2.2,10.69
0.0,0.0,1970,-0.75,-10.47,2.2,10.73
0.0,0.0,1966,-0.75,-10.47,2.16,10.72
0.0,0.0,1994,-0.78,-10.4,2.2,10.65
0.0,0.0,1960,-0.78,-10.4,2.28,10.67
0.0,0.0,1973,-0.78,-10.43,2.2,10.69
0.0,0.0,1971,-0.82,-10.43,2.24,10.7
0.0,0.0,1975,-0.78,-10.43,2.2,10.69
0.0,0.0,1967,-0.75,-10.47,2.24,10.74
0.0,0.0,2002,-0.78,-10.43,2.2,10.69
0.0,0.0,1975,-0.78,-10.4,2.16,10.65
0.0,0.0,1973,-0.78,-10.4,2.2,10.65
0.0,0.0,1968,-0.78,-10.43,2.16,10.68
0.0,0.0,1975,-0.78,-10.43,2.2,10.69
0.0,0.0,1977,-0.78,-10.4,2.2,10.65
0.0,0.0,1969,-0.71,-10.4,2.24,10.66
0.0,0.0,1951,-0.78,-10.4,2.24,10.66
0.0,0.0,1970,-0.78,-10.4,2.12,10.64
0.0,0.0,1967,-0.78,-10.43,2.24,10.7
0.0,0.0,1966,-0.78,-10.43,2.2,10.69
0.0,0.0,1970,-0.78,-10.43,2.24,10.7
0.0,0.0,1952,-0.78,-10.43,2.28,10.71
0.0,0.0,1964,-0.82,-10.4,2.2,10.66
0.0,0.0,1962,-0.78,-10.43,2.24,10.7
0.0,0.0,1959,-0.78,-10.43,2.2,10.69
0.0,0.0,1982,-0.78,-10.43,2.16,10.68
0.0,0.0,1955,-0.75,-10.36,2.2,10.61
0.0,0.0,1968,-0.82,-10.43,2.24,10.7
0.0,0.0,1977,-0.78,-10.43,2.28,10.71
0.0,0.0,1950,-0.78,-10.47,2.16,10.72
0.0,0.0,1959,-0.82,-10.4,2.2,10.66
0.0,0.0,1967,-0.78,-10.43,2.24,10.7
0.0,0.0,1960,-0.78,-10.36,2.16,10.61
0.0,0.0,1963,-0.78,-10.4,2.28,10.67
0.0,0.0,1966,-0.75,-10.43,2.24,10.7
0.0,0.0,1966,-0.75,-10.4,2.28,10.67
0.0,0.0,1987,-0.78,-10.36,2.28,10.63
0.0,0.0,1959,-0.75,-10.47,2.16,10.72
0.0,0.0,1971,-0.78,-10.43,2.2,10.69
0.0,0.0,1971,-0.82,-10.4,2.28,10.67
0.0,0.0,2002,-0.75,-10.47,2.31,10.75
0.0,0.0,1961,-0.82,-10.47,2.2,10.73
0.0,0.0,1952,-0.75,-10.47,2.2,10.73
0.0,0.0,1956,-0.78,-10.32,2.2,10.58
0.0,0.0,1965,-0.78,-10.43,2.24,10.7
0.0,0.0,1973,-0.78,-10.43,2.2,10.69
0.0,0.0,1990,-0.82,-10.36,2.12,10.6
0.0,0.0,1976,-0.75,-10.43,2.24,10.7
0.0,0.0,1975,-0.75,-10.4,2.24,10.66
0.0,0.0,1976,-0.75,-10.36,2.24,10.62
0.0,0.0,1983,-0.82,-10.47,2.2,10.73
0.0,0.0,1947,-0.78,-10.43,2.16,10.68
0.0,0.0,1975,-0.82,-10.43,2.28,10.71
0.0,0.0,1967,-0.78,-10.43,2.2,10.69
0.0,0.0,1972,-0.78,-10.4,2.16,10.65
0.0,0.0,1955,-0.78,-10.43,2.2,10.69
0.0,0.0,1966,-0.75,-10.43,2.16,10.68
0.0,0.0,1970,-0.75,-10.4,2.2,10.65
0.0,0.0,1983,-0.78,-10.4,2.12,10.64
0.0,0.0,1949,-0.75,-10.4,2.24,10.66
0.0,0.0,1972,-0.75,-10.43,2.24,10.7
0.0,0.0,1969,-0.78,-10.36,2.24,10.62
0.0,0.0,1958,-0.71,-10.43,2.24,10.69
0.0,0.0,1995,-0.67,-10.4,2.04,10.61
0.0,0.0,1965,-0.75,-10.43,2.12,10.67
0.0,0.0,1966,-0.75,-10.4,2.2,10.65
0.0,0.0,1971,-0.75,-10.43,2.2,10.69
0.0,0.0,1968,-0.78,-10.4,2.2,10.65
0.0,0.0,1991,-0.75,-10.43,2.2,10.69
0.0,0.0,1980,-0.75,-10.43,2.2,10.69
0.0,0.0,1974,-0.75,-10.43,2.2,10.69
0.0,0.0,1969,-0.75,-10.43,2.24,10.7
0.0,0.0,1966,-0.71,-10.36,2.2,10.61
0.0,0.0,1963,-0.78,-10.47,2.16,10.72
0.0,0.0,1953,-0.75,-10.4,2.2,10.65
0.0,0.0,1976,-0.75,-10.43,2.2,10.69
0.0,0.0,1973,-0.75,-10.43,2.2,10.69
0.0,0.0,1973,-0.78,-10.43,2.16,10.68
0.0,0.0,1971,-0.75,-10.43,2.2,10.69
0.0,0.0,1960,-0.75,-10.4,2.2,10.65
0.0,0.0,1953,-0.71,-10.43,2.16,10.68
0.0,0.0,1967,-0.75,-10.43,2.2,10.69
0.0,0.0,1968,-0.78,-10.4,2.24,10.66
0.0,0.0,1968,-0.78,-10.4,2.2,10.65
0.0,0.0,1944,-0.78,-10.43,2.24,10.7
0.0,0.0,1967,-0.78,-10.43,2.2,10.69
0.0,0.0,1972,-0.71,-10.47,2.2,10.72
0.0,0.0,1970,-0.75,-10.43,2.2,10.69
0.0,0.0,1966,-0.75,-10.43,2.2,10.69
0.0,0.0,1974,-0.75,-10.36,2.2,10.61
0.0,0.0,1971,-0.78,-10.55,2.08,10.78
0.0,0.0,1993,-0.75,-10.43,2.28,10.71
0.0,0.0,1974,-0.67,-10.47,2.16,10.71
0.0,0.0,1971,-0.78,-10.4,2.16,10.65
0.0,0.0,1967,-0.75,-10.43,2.2,10.69
0.0,0.0,1976,-0.75,-10.43,2.2,10.69
0.0,0.0,1968,-0.75,-10.4,2.2,10.65
0.0,0.0,1965,-0.75,-10.4,2.24,10.66
0.0,0.0,1966,-0.78,-10.4,2.2,10.65
0.0,0.0,1968,-0.75,-10.43,2.24,10.7
0.0,0.0,1986,-0.78,-10.4,2.24,10.66
0.0,0.0,1927,-0.75,-10.4,2.16,10.64
0.0,0.0,1978,-0.78,-10.28,2.16,10.53
0.0,0.0,1993,-0.78,-10.36,2.2,10.62
0.0,0.0,1997,-0.75,-10.47,2.12,10.71
0.0,0.0,2021,-0.78,-10.43,2.24,10.7
0.0,0.0,2059,-0.82,-10.4,2.24,10.66
0.0,0.0,2012,-0.78,-10.4,2.31,10.68
0.0,0.0,2027,-0.75,-10.36,2.24,10.62
0.0,0.0,2002,-0.78,-10.47,2.24,10.74
0.0,0.0,2003,-0.71,-10.43,2.2,10.69
0.0,0.0,2031,-0.71,-10.4,2.28,10.66
0.0,0.0,2004,-0.78,-10.4,2.16,10.65
0.0,0.0,1969,-0.78,-10.43,2.12,10.68
0.0,0.0,2009,-0.78,-10.43,2.24,10.7
0.0,0.0,2032,-0.78,-10.4,2.2,10.65
0.0,0.0,2004,-0.78,-10.43,2.28,10.71
0.0,0.0,2005,-0.75,-10.43,2.16,10.68
0.0,0.0,1978,-0.75,-10.43,2.2,10.69
0.0,0.0,1991,-0.78,-10.4,2.2,10.65
0.0,0.0,2001,-0.75,-10.4,2.31,10.68
0.0,0.0,2007,-0.78,-10.43,2.24,10.7
0.0,0.0,1983,-0.75,-10.36,2.2,10.61
0.0,0.0,2002,-0.78,-10.43,2.24,10.7
0.0,0.0,2007,-0.71,-10.4,2.28,10.66
0.0,0.0,2044,-0.78,-10.4,2.28,10.67
0.0,0.0,2010,-0.82,-10.43,2.2,10.69
0.0,0.0,2024,-0.75,-10.43,2.24,10.7
0.0,0.0,2017,-0.75,-10.36,2.24,10.62
0.0,0.0,2016,-0.82,-10.36,2.31,10.64
0.0,0.0,2018,-0.78,-10.4,2.24,10.66
0.0,0.0,2038,-0.78,-10.4,2.24,10.66
0.0,0.0,2017,-0.75,-10.4,2.24,10.66
0.0,0.0,2002,-0.71,-10.4,2.35,10.68
0.0,0.0,2010,-0.78,-10.4,2.24,10.66
0.0,0.0,2032,-0.71,-10.47,2.31,10.75
0.0,0.0,2041,-0.82,-10.4,2.24,10.66
0.0,0.0,2044,-0.71,-10.43,2.2,10.69
0.0,0.0,1698,-0.86,-10.12,2.0,10.35
0.0,0.0,1609,-0.67,-10.28,2.16,10.52
0.0,0.0,1959,-0.9,-10.4,2.2,10.66
0.0,0.0,1834,-0.71,-10.59,2.39,10.88
0.0,0.0,1812,-0.75,-10.43,2.31,10.71
0.0,0.0,1800,-0.71,-10.43,2.31,10.71
0.0,0.0,1800,-0.82,-10.36,2.35,10.65
0.0,0.0,1770,-0.67,-10.28,2.31,10.56
0.0,0.0,1859,-1.22,-10.51,2.16,10.8
0.0,0.0,1906,-0.75,-10.4,2.35,10.68
0.0,0.0,3157,0.27,-10.43,2.39,10.71
0.0,0.0,3045,0.0,-10.51,2.28,10.76
0.0,0.0,3035,0.04,-10.51,2.28,10.76
0.0,0.0,3358,0.0,-10.28,2.39,10.55
0.0,0.0,2964,0.04,-10.51,2.12,10.72
0.0,0.0,1023,-0.27,-10.32,2.39,10.59
0.0,0.0,1168,-0.12,-10.43,2.39,10.71
0.0,0.0,1024,-1.18,-10.4,1.77,10.61
0.0,0.0,1054,-0.12,-10.24,2.43,10.52
0.0,0.0,2373,-0.59,-9.3,2.55,9.66
0.0,0.0,3654,-0.24,-10.47,2.47,10.76
0.0,0.0,794,0.0,-10.47,2.51,10.77
0.0,0.0,1953,-0.04,-10.43,2.55,10.74
0.0,0.0,107571,0.0,-10.4,2.59,10.71
0.0,0.0,43965,0.0,-10.47,2.55,10.78
0.0,0.0,59482,0.0,-10.4,2.55,10.7
0.0,0.0,16671,0.55,-10.9,2.31,11.16
0.0,0.0,42875,0.51,-10.67,2.51,10.97
0.0,0.0,79789,0.0,-10.32,2.59,10.64
0.0,0.0,120541,0.04,-10.51,2.55,10.82
0.0,0.0,122561,0.08,-10.43,2.63,10.76
0.0,0.0,116637,0.04,-10.47,2.55,10.78
0.0,0.0,119360,0.12,-10.51,2.51,10.81
0.0,0.0,98403,0.04,-10.43,2.51,10.73
0.0,0.0,116293,0.08,-10.51,2.55,10.82
0.0,0.0,119681,0.08,-10.51,2.55,10.82
0.0,0.0,120459,0.08,-10.43,2.51,10.73
0.0,0.0,120100,0.16,-10.43,2.55,10.74
0.0,0.0,119767,0.12,-10.55,2.55,10.86
0.0,0.0,120892,0.08,-10.55,2.47,10.84
0.0,0.0,119796,0.08,-10.47,2.51,10.77
0.0,0.0,29552,0.12,-10.51,2.55,10.82
0.0,0.0,114321,0.04,-10.51,2.55,10.82
0.0,0.0,27973,0.08,-10.47,2.51,10.77
0.0,0.0,110994,0.08,-10.43,2.51,10.73
0.0,0.0,106952,0.08,-10.43,2.47,10.72
0.0,0.0,91802,0.04,-10.43,2.59,10.75
0.0,0.0,107233,0.12,-10.51,2.51,10.81
0.0,0.0,29312,0.12,-10.47,2.59,10.79
0.0,0.0,105065,0.08,-10.47,2.51,10.77
0.0,0.0,70511,0.12,-10.51,2.55,10.82
0.0,0.0,108043,0.12,-10.47,2.55,10.78
0.0,0.0,30691,0.12,-10.55,2.51,10.85
0.0,0.0,94094,0.12,-10.51,2.55,10.82
0.0,0.0,72660,0.12,-10.47,2.51,10.77
0.0,0.0,76097,0.16,-10.43,2.51,10.73
0.0,0.0,96128,0.16,-10.43,2.51,10.73
0.0,0.0,101636,0.12,-10.47,2.47,10.76
0.0,0.0,102964,0.08,-10.47,2.47,10.76
0.0,0.0,102667,0.12,-10.51,2.59,10.83
0.0,0.0,43757,0.08,-10.47,2.51,10.77
0.0,0.0,60622,0.12,-10.47,2.47,10.76
0.0,0.0,103491,0.16,-10.51,2.51,10.81
0.0,0.0,99804,0.08,-10.47,2.55,10.78
0.04,0.0,81055,0.12,-10.55,2.59,10.87
0.04,0.0,66111,0.08,-10.43,2.51,10.73
0.04,0.0,96010,0.12,-10.47,2.51,10.77
0.04,0.0,106750,0.08,-10.47,2.51,10.77
0.04,0.0,106549,0.04,-10.47,2.55,10.78
0.04,0.0,111897,0.12,-10.55,2.51,10.85
0.04,0.0,111785,0.24,-10.47,2.51,10.77
0.0,0.0,105750,0.16,-10.51,2.47,10.8
0.0,0.0,107442,0.12,-10.47,2.59,10.79
0.0,0.0,108753,0.08,-10.43,2.59,10.75
0.0,0.0,112430,0.12,-10.47,2.51,10.77
0.0,0.0,114010,0.12,-10.51,2.51,10.81
0.0,0.0,114664,0.08,-10.47,2.55,10.78
0.0,0.0,114803,0.08,-10.47,2.51,10.77
0.0,0.0,114286,0.08,-10.47,2.55,10.78
0.0,0.0,114309,0.08,-10.51,2.55,10.82
0.0,0.0,114446,0.16,-10.43,2.47,10.72
0.0,0.0,113762,0.12,-10.43,2.55,10.74
0.0,0.0,112800,0.12,-10.47,2.51,10.77
0.0,0.0,110619,0.08,-10.43,2.51,10.73
0.0,0.0,115354,0.12,-10.47,2.51,10.77
0.0,0.0,109752,0.12,-10.43,2.59,10.75
0.0,0.0,108250,0.08,-10.47,2.51,10.77
0.0,0.0,106706,0.08,-10.47,2.51,10.77
0.0,0.0,109393,0.12,-10.55,2.55,10.86
0.0,0.0,79244,0.08,-10.47,2.55,10.78
0.0,0.0,107217,0.12,-10.47,2.59,10.79
0.0,0.0,29546,0.16,-10.43,2.55,10.74
0.0,0.0,102399,0.08,-10.55,2.79,10.91
0.0,0.0,100113,0.12,-10.51,2.55,10.82
0.0,0.0,109712,0.08,-10.47,2.51,10.77
0.0,0.0,20004,0.12,-10.47,2.55,10.78
0.0,0.0,13100,0.12,-10.55,2.63,10.87
0.0,0.0,2338,0.16,-10.59,2.59,10.9
0.0,0.0,1251,0.04,-10.43,2.51,10.73
0.0,0.0,20719,0.12,-10.24,2.2,10.47
0.0,0.0,19884,0.08,-10.47,2.51,10.77
0.0,0.0,20079,0.12,-10.47,2.59,10.79
0.0,0.0,20249,0.08,-10.4,2.51,10.69
0.0,0.0,20548,0.08,-10.51,2.51,10.81
0.0,0.0,20897,0.2,-10.43,2.51,10.73
0.0,0.0,20917,0.12,-10.51,2.59,10.83
0.0,0.0,20916,0.12,-10.47,2.55,10.78
0.0,0.0,20920,0.16,-10.51,2.55,10.82
0.0,0.0,20913,0.08,-10.47,2.51,10.77
0.0,0.0,21031,0.08,-10.47,2.55,10.78
0.0,0.0,21061,0.04,-10.4,2.55,10.7
0.0,0.0,21102,0.08,-10.47,2.51,10.77
0.0,0.0,21110,0.12,-10.51,2.51,10.81
0.0,0.0,21169,0.08,-10.43,2.51,10.73
0.0,0.0,21190,0.12,-10.47,2.51,10.77
0.0,0.0,21223,0.08,-10.51,2.55,10.82
0.0,0.0,21225,0.08,-10.47,2.47,10.76
0.0,0.0,21238,0.12,-10.43,2.59,10.75
0.0,0.0,21254,0.12,-10.47,2.51,10.77
0.0,0.0,21283,0.08,-10.47,2.55,10.78
0.0,0.0,21332,0.08,-10.47,2.51,10.77
0.0,0.0,21316,0.08,-10.51,2.55,10.82
0.0,0.0,21343,0.12,-10.43,2.51,10.73
0.0,0.0,21336,0.12,-10.47,2.55,10.78
0.0,0.0,21365,0.12,-10.51,2.55,10.82
0.0,0.0,21381,0.08,-10.51,2.55,10.82
0.0,0.0,21357,0.12,-10.51,2.43,10.79
0.0,0.0,21379,0.12,-10.51,2.51,10.81
0.0,0.0,21379,0.08,-10.43,2.51,10.73
0.0,0.0,21415,0.08,-10.47,2.55,10.78
0.0,0.0,21393,0.08,-10.47,2.55,10.78
0.0,0.0,21478,0.16,-10.55,2.55,10.86
0.0,0.0,21484,0.08,-10.51,2.55,10.82
0.0,0.0,21501,0.08,-10.47,2.51,10.77
0.0,0.0,21507,0.08,-10.47,2.55,10.78
0.0,0.0,21544,0.12,-10.47,2.51,10.77
0.0,0.0,21521,0.08,-10.47,2.51,10.77
0.0,0.0,21537,0.12,-10.47,2.51,10.77
0.0,0.0,21512,0.12,-10.51,2.55,10.82
0.0,0.0,21513,0.12,-10.47,2.51,10.77
0.0,0.0,21577,0.12,-10.47,2.59,10.79
0.0,0.0,21583,0.12,-10.43,2.55,10.74
0.0,0.0,21569,0.12,-10.51,2.51,10.81
0.0,0.0,21566,0.08,-10.51,2.51,10.81
0.0,0.0,21595,0.12,-10.47,2.55,10.78
0.0,0.0,21589,0.08,-10.43,2.55,10.74
0.0,0.0,21645,0.08,-10.43,2.55,10.74
0.0,0.0,21651,0.12,-10.51,2.51,10.81
0.0,0.0,21658,0.12,-10.51,2.59,10.83
0.0,0.0,21701,0.08,-10.43,2.55,10.74
0.0,0.0,21711,0.12,-10.55,2.55,10.86
0.0,0.0,21767,0.08,-10.47,2.43,10.75
0.0,0.0,21793,0.08,-10.51,2.55,10.82
0.0,0.0,21789,0.12,-10.51,2.47,10.8
0.0,0.0,21851,0.12,-10.43,2.55,10.74
0.0,0.0,21815,0.16,-10.47,2.55,10.78
0.0,0.0,21863,0.08,-10.47,2.55,10.78
0.0,0.0,21842,0.12,-10.4,2.55,10.7
0.0,0.0,21735,0.08,-10.51,2.55,10.82
0.0,0.0,21804,0.08,-10.47,2.47,10.76
0.0,0.0,21834,0.16,-10.55,2.59,10.87
0.0,0.0,21985,0.16,-10.43,2.55,10.74
0.0,0.0,21863,0.12,-10.47,2.51,10.77
0.0,0.0,21927,0.08,-10.47,2.55,10.78
0.0,0.0,21897,0.2,-10.51,2.63,10.84
0.0,0.0,21906,0.16,-10.51,2.59,10.83
0.0,0.0,21906,0.12,-10.47,2.59,10.79
0.0,0.0,21941,0.16,-10.47,2.55,10.78
0.0,0.0,21905,0.12,-10.47,2.55,10.78
0.0,0.0,21977,0.16,-10.51,2.47,10.8
0.0,0.0,21999,0.12,-10.43,2.51,10.73
0.0,0.0,21932,0.16,-10.47,2.51,10.77
0.0,0.0,21971,0.16,-10.47,2.55,10.78
0.0,0.0,21990,0.12,-10.51,2.55,10.82
0.0,0.0,21963,0.08,-10.51,2.55,10.82
0.0,0.0,21993,0.12,-10.43,2.55,10.74
0.0,0.0,21974,0.12,-10.47,2.55,10.78
0.0,0.0,22009,0.12,-10.51,2.51,10.81
0.0,0.0,21963,0.12,-10.47,2.55,10.78
0.0,0.0,21980,0.12,-10.51,2.59,10.83
0.0,0.0,21978,0.12,-10.47,2.51,10.77
0.0,0.0,21980,0.16,-10.51,2.55,10.82
0.0,0.0,22015,0.24,-10.47,2.59,10.79
0.0,0.0,21992,0.12,-10.47,2.51,10.77
0.0,0.0,22005,0.12,-10.47,2.55,10.78
0.0,0.0,21993,0.12,-10.47,2.47,10.76
0.0,0.0,21977,0.08,-10.51,2.51,10.81
0.0,0.0,22016,0.16,-10.47,2.55,10.78
0.0,0.0,21978,0.12,-10.47,2.51,10.77
0.0,0.0,22035,0.12,-10.43,2.51,10.73
0.0,0.0,21990,0.08,-10.51,2.51,10.81
0.0,0.0,22019,0.12,-10.43,2.55,10.74
0.0,0.0,22014,0.16,-10.47,2.51,10.77
0.0,0.0,22135,0.08,-10.51,2.51,10.81
0.0,0.0,22097,0.12,-10.47,2.51,10.77
0.0,0.0,22093,0.16,-10.47,2.55,10.78
0.0,0.0,22197,0.04,-10.51,2.55,10.82
0.0,0.0,22183,0.12,-10.47,2.51,10.77
0.0,0.0,22155,0.16,-10.51,2.55,10.82
0.0,0.0,22196,0.16,-10.51,2.51,10.81
0.0,0.0,22161,0.16,-10.47,2.55,10.78
0.0,0.0,22188,0.16,-10.47,2.55,10.78
0.0,0.0,22212,0.16,-10.47,2.55,10.78
0.0,0.0,22178,0.16,-10.47,2.59,10.79
0.0,0.0,22195,0.12,-10.47,2.55,10.78
0.0,0.0,22179,0.16,-10.51,2.55,10.82
0.0,0.0,22205,0.12,-10.47,2.59,10.79
0.0,0.0,22215,0.16,-10.47,2.59,10.79
0.0,0.0,22192,0.12,-10.47,2.55,10.78
0.0,0.0,22205,0.08,-10.47,2.55,10.78
0.0,0.0,22196,0.12,-10.47,2.55,10.78
0.0,0.0,22184,0.12,-10.47,2.51,10.77
0.0,0.0,22180,0.12,-10.51,2.55,10.82
0.0,0.0,22195,0.12,-10.47,2.47,10.76
0.0,0.0,22188,0.16,-10.47,2.51,10.77
0.0,0.0,22218,0.12,-10.51,2.59,10.83
0.0,0.0,22203,0.12,-10.47,2.55,10.78
0.0,0.0,22218,0.08,-10.47,2.51,10.77
0.0,0.0,22197,0.16,-10.47,2.55,10.78
0.0,0.0,22214,0.12,-10.47,2.51,10.77
0.0,0.0,22198,0.16,-10.47,2.51,10.77
0.0,0.0,22206,0.12,-10.47,2.59,10.79
0.0,0.0,22209,0.12,-10.51,2.51,10.81
0.0,0.0,22189,0.12,-10.47,2.51,10.77
0.0,0.0,22222,0.12,-10.47,2.55,10.78
0.0,0.0,22193,0.16,-10.47,2.51,10.77
0.0,0.0,22182,0.12,-10.47,2.55,10.78
0.0,0.0,22192,0.16,-10.51,2.51,10.81
0.0,0.0,22203,0.12,-10.47,2.47,10.76
0.0,0.0,22182,0.12,-10.47,2.51,10.77
0.0,0.0,22200,0.16,-10.47,2.51,10.77
0.0,0.0,22213,0.16,-10.47,2.55,10.78
0.0,0.0,22199,0.12,-10.43,2.55,10.74
0.0,0.0,22203,0.16,-10.51,2.55,10.82
0.0,0.0,22223,0.16,-10.47,2.55,10.78
0.0,0.0,22224,0.16,-10.51,2.55,10.82
0.0,0.0,22212,0.16,-10.47,2.55,10.78
0.0,0.0,22212,0.12,-10.51,2.59,10.83
0.0,0.0,22203,0.16,-10.47,2.55,10.78
0.0,0.0,22195,0.16,-10.51,2.55,10.82
0.0,0.0,22207,0.16,-10.4,2.51,10.7
0.0,0.0,22194,0.12,-10.47,2.59,10.79
0.0,0.0,22192,0.16,-10.51,2.55,10.82
0.0,0.0,22217,0.16,-10.51,2.55,10.82
0.0,0.0,22192,0.12,-10.51,2.55,10.82
0.0,0.0,22196,0.12,-10.47,2.55,10.78
0.0,0.0,22305,0.08,-10.51,2.47,10.8
0.0,0.0,22203,0.12,-10.47,2.47,10.76
0.0,0.0,22239,0.24,-10.51,2.47,10.8
0.0,0.0,22222,0.12,-10.51,2.55,10.82
0.0,0.0,22243,0.16,-10.51,2.51,10.81
0.0,0.0,22217,0.12,-10.47,2.51,10.77
0.0,0.0,22268,0.16,-10.51,2.55,10.82
0.0,0.0,22263,0.12,-10.43,2.51,10.73
0.0,0.0,22240,0.16,-10.47,2.59,10.79
0.0,0.0,22267,0.12,-10.55,2.51,10.85
0.0,0.0,22282,0.16,-10.51,2.55,10.82
0.0,0.0,22283,0.12,-10.51,2.51,10.81
0.0,0.0,22254,0.12,-10.51,2.55,10.82
0.0,0.0,22255,0.16,-10.51,2.55,10.82
0.0,0.0,22237,0.08,-10.47,2.51,10.77
0.0,0.0,22292,0.12,-10.51,2.55,10.82
0.0,0.0,22284,0.12,-10.51,2.51,10.81
0.0,0.0,22279,0.16,-10.47,2.55,10.78
0.0,0.0,22267,0.16,-10.51,2.59,10.83
0.0,0.0,22283,0.12,-10.47,2.51,10.77
0.0,0.0,22287,0.16,-10.51,2.51,10.81
0.0,0.0,22284,0.12,-10.47,2.51,10.77
0.0,0.0,22275,0.16,-10.51,2.55,10.82
0.0,0.0,22309,0.16,-10.51,2.59,10.83
0.0,0.0,22306,0.12,-10.51,2.55,10.82
0.0,0.0,22339,0.2,-10.51,2.55,10.82
0.0,0.0,22321,0.12,-10.51,2.55,10.82
0.0,0.0,22302,0.12,-10.43,2.51,10.73
0.0,0.0,22349,0.16,-10.47,2.55,10.78
0.0,0.0,22347,0.12,-10.47,2.55,10.78
0.0,0.0,22295,0.12,-10.43,2.51,10.73
0.0,0.0,22324,0.2,-10.55,2.51,10.85
0.0,0.0,22376,0.16,-10.59,2.55,10.89
0.0,0.0,22356,0.12,-10.47,2.55,10.78
0.0,0.0,22415,0.12,-10.43,2.47,10.72
0.0,0.0,22309,0.16,-10.51,2.55,10.82
0.0,0.0,22335,0.31,-10.43,2.67,10.77
0.0,0.0,22471,0.2,-10.51,2.51,10.81
0.0,0.0,22514,0.2,-10.55,2.55,10.86
0.0,0.0,22561,0.2,-10.51,2.63,10.84
0.0,0.0,22566,0.16,-10.47,2.55,10.78
0.0,0.0,22575,0.2,-10.51,2.51,10.81
0.0,0.0,22552,0.16,-10.51,2.51,10.81
0.0,0.0,22560,0.12,-10.43,2.59,10.75
0.0,0.0,22615,0.16,-10.47,2.55,10.78
0.0,0.0,22502,0.16,-10.47,2.55,10.78
0.0,0.0,22514,0.12,-10.47,2.55,10.78
0.0,0.0,22586,0.16,-10.51,2.47,10.8
0.0,0.0,22417,0.12,-10.43,2.63,10.76
0.0,0.0,22384,0.16,-10.51,2.51,10.81
0.0,0.0,22419,0.12,-10.47,2.63,10.8
0.0,0.0,22786,0.2,-10.55,2.51,10.85
0.0,0.0,22691,0.12,-10.47,2.55,10.78
0.0,0.0,22563,0.16,-10.47,2.63,10.8
0.0,0.0,22673,0.2,-10.47,2.51,10.77
0.0,0.0,22727,0.12,-10.51,2.55,10.82
0.0,0.0,22852,0.16,-10.51,2.59,10.83
0.0,0.0,22722,0.12,-10.51,2.55,10.82
0.0,0.0,22655,0.16,-10.47,2.59,10.79
0.0,0.0,22561,0.16,-10.47,2.55,10.78
0.0,0.0,22803,0.12,-10.47,2.55,10.78
0.0,0.0,22855,0.12,-10.47,2.51,10.77
0.0,0.0,22829,0.12,-10.51,2.51,10.81
0.0,0.0,22795,0.16,-10.47,2.55,10.78
0.0,0.0,22762,0.16,-10.43,2.55,10.74
0.0,0.0,25619,0.86,-10.55,2.51,10.88
0.0,0.0,25632,0.82,-10.51,2.51,10.84
0.0,0.0,25652,0.86,-10.51,2.47,10.83
0.0,0.0,25641,0.9,-10.51,2.47,10.84
0.0,0.0,25666,0.86,-10.55,2.43,10.86
0.0,0.0,25621,0.78,-10.47,2.47,10.79
0.0,0.0,25634,0.86,-10.51,2.47,10.83
0.0,0.0,25639,0.82,-10.47,2.55,10.81
0.0,0.0,25630,0.86,-10.51,2.39,10.82
0.0,0.0,25644,0.82,-10.47,2.51,10.8
0.0,0.0,25643,0.86,-10.47,2.47,10.8
0.0,0.0,25663,0.82,-10.47,2.47,10.79
0.0,0.0,25639,0.9,-10.51,2.47,10.84
0.0,0.0,25647,0.86,-10.51,2.43,10.82
0.0,0.0,25630,0.9,-10.51,2.47,10.84
0.0,0.0,25643,0.82,-10.47,2.51,10.8
0.0,0.0,25642,0.86,-10.43,2.55,10.78
0.0,0.0,25642,0.82,-10.47,2.43,10.78
0.0,0.0,25642,0.9,-10.55,2.47,10.87
0.0,0.0,25653,0.86,-10.59,2.47,10.91
0.0,0.0,25637,0.86,-10.47,2.51,10.8
0.0,0.0,25649,0.86,-10.47,2.43,10.79
0.0,0.0,25637,0.82,-10.51,2.51,10.84
0.0,0.0,25652,0.86,-10.59,2.51,10.92
0.0,0.0,25643,0.86,-10.47,2.43,10.79
0.0,0.0,25635,0.82,-10.43,2.43,10.75
0.0,0.0,25612,0.86,-10.51,2.47,10.83
0.0,0.0,25665,0.9,-10.47,2.43,10.79
0.0,0.0,25627,0.86,-10.51,2.47,10.83
0.0,0.0,25686,0.86,-10.55,2.51,10.88
0.0,0.0,25610,0.86,-10.51,2.43,10.82
0.0,0.0,25646,0.86,-10.51,2.43,10.82
0.0,0.0,25644,0.86,-10.51,2.43,10.82
0.0,0.0,25646,0.86,-10.51,2.47,10.83
0.0,0.0,25643,0.82,-10.47,2.47,10.79
0.0,0.0,25657,0.86,-10.47,2.47,10.8
0.0,0.0,25592,0.86,-10.47,2.39,10.78
0.0,0.0,25653,0.94,-10.63,2.43,10.95
0.0,0.0,25560,0.51,-11.77,0.94,11.82
0.0,0.0,25840,0.94,-10.55,2.86,10.97
0.0,0.0,26029,0.98,-10.67,2.47,11.0
0.0,0.0,26133,0.24,-10.63,2.04,10.83
0.0,0.0,26239,1.02,-10.51,2.47,10.85
0.0,0.0,26181,1.06,-10.51,2.47,10.85
0.0,0.0,26221,1.02,-10.55,2.28,10.84
0.0,0.0,26163,0.98,-10.55,2.39,10.86
0.0,0.0,26150,1.02,-10.55,2.39,10.87
0.0,0.0,26132,0.98,-10.51,2.51,10.85
0.0,0.0,26121,1.02,-10.47,2.39,10.79
0.0,0.0,26157,0.98,-10.47,2.39,10.79
0.0,0.0,26136,0.98,-10.51,2.43,10.83
0.0,0.0,26127,1.06,-10.47,2.35,10.79
0.0,0.0,26148,0.98,-10.51,2.47,10.84
0.0,0.0,26147,1.06,-10.59,2.43,10.92
0.0,0.0,26156,1.02,-10.51,2.43,10.84
0.0,0.0,26140,0.98,-10.47,2.31,10.77
0.0,0.0,26135,1.02,-10.51,2.39,10.83
0.0,0.0,26131,0.98,-10.55,2.39,10.86
0.0,0.0,26141,1.02,-10.55,2.35,10.86
0.0,0.0,26136,1.06,-10.55,2.35,10.86
0.0,0.0,26128,1.02,-10.51,2.39,10.83
0.0,0.0,26127,1.02,-10.51,2.35,10.82
0.0,0.0,26119,1.06,-10.51,2.43,10.84
0.0,0.0,26140,0.98,-10.47,2.43,10.8
0.0,0.0,26168,1.02,-10.47,2.43,10.8
0.0,0.0,26133,1.1,-10.55,2.39,10.88
0.0,0.0,26147,0.98,-10.47,2.35,10.78
0.0,0.0,26164,1.06,-10.51,2.43,10.84
0.0,0.0,26150,1.02,-10.43,2.39,10.75
0.0,0.0,26142,1.02,-10.47,2.39,10.79
0.0,0.0,26122,1.02,-10.55,2.47,10.89
0.0,0.0,26133,1.02,-10.51,2.39,10.83
0.0,0.0,26165,1.1,-10.63,2.28,10.93
0.0,0.0,26225,1.02,-10.59,2.35,10.9
0.0,0.0,26181,1.02,-10.55,2.43,10.88
0.0,0.0,26184,1.02,-10.55,2.35,10.86
0.0,0.0,26153,1.02,-10.51,2.39,10.83
0.0,0.0,26180,0.98,-10.47,2.43,10.8
0.0,0.0,26199,1.06,-10.55,2.39,10.87
0.0,0.0,26168,1.06,-10.55,2.35,10.86
0.0,0.0,26183,1.06,-10.51,2.39,10.83
0.0,0.0,26186,1.06,-10.43,2.43,10.77
0.0,0.0,26181,1.02,-10.51,2.43,10.84
0.0,0.0,26188,1.06,-10.55,2.43,10.88
0.0,0.0,26177,1.02,-10.51,2.39,10.83
0.0,0.0,26209,1.1,-10.47,2.35,10.79
0.0,0.0,26187,1.06,-10.47,2.39,10.8
0.0,0.0,26181,1.02,-10.51,2.35,10.82
0.0,0.0,26176,1.06,-10.51,2.43,10.84
0.0,0.0,26189,1.06,-10.47,2.39,10.8
0.0,0.0,26176,1.02,-10.51,2.39,10.83
0.0,0.0,26200,1.06,-10.55,2.39,10.87
0.0,0.0,26194,1.1,-10.51,2.39,10.84
0.0,0.0,26199,1.02,-10.55,2.35,10.86
0.0,0.0,26185,1.06,-10.51,2.39,10.83
0.0,0.0,26177,0.98,-10.51,2.35,10.82
0.0,0.0,26196,1.06,-10.55,2.47,10.89
0.0,0.0,26183,1.06,-10.55,2.35,10.86
0.0,0.0,26186,1.06,-10.51,2.39,10.83
0.0,0.0,26180,1.02,-10.51,2.39,10.83
0.0,0.0,26186,1.06,-10.51,2.35,10.82
0.0,0.0,26207,1.1,-10.55,2.43,10.88
0.0,0.0,26191,1.06,-10.47,2.35,10.79
0.0,0.0,26190,1.02,-10.47,2.31,10.77
0.0,0.0,26186,1.06,-10.55,2.43,10.88
0.0,0.0,26177,0.98,-10.47,2.39,10.79
0.0,0.0,26194,1.06,-10.51,2.43,10.84
0.0,0.0,26186,1.06,-10.55,2.35,10.86
0.0,0.0,26188,1.1,-10.51,2.39,10.84
0.0,0.0,26192,1.02,-10.47,2.39,10.79
0.0,0.0,26190,1.1,-10.51,2.35,10.83
0.0,0.0,26160,1.02,-10.47,2.39,10.79
0.0,0.0,26180,1.02,-10.51,2.39,10.83
0.0,0.0,26183,1.02,-10.47,2.39,10.79
0.0,0.0,26186,1.02,-10.43,2.39,10.75
0.0,0.0,26156,1.02,-10.47,2.35,10.78
0.0,0.0,26185,1.1,-10.43,2.35,10.75
0.0,0.0,26185,1.06,-10.51,2.39,10.83
0.0,0.0,26179,0.98,-10.43,2.43,10.76
0.0,0.0,26179,1.02,-10.51,2.39,10.83
0.0,0.0,26170,1.02,-10.51,2.35,10.82
0.0,0.0,26174,1.06,-10.51,2.35,10.82
0.0,0.0,26170,1.1,-10.47,2.47,10.82
0.0,0.0,26185,1.02,-10.51,2.43,10.84
0.0,0.0,26180,1.02,-10.47,2.39,10.79
0.0,0.0,26187,0.98,-10.59,2.43,10.91
0.0,0.0,26168,1.06,-10.47,2.39,10.8
0.0,0.0,26196,1.06,-10.55,2.51,10.9
0.0,0.0,26163,1.06,-10.55,2.39,10.87
0.0,0.0,26168,1.02,-10.47,2.39,10.79
0.0,0.0,26173,1.1,-10.59,2.35,10.9
0.0,0.0,26171,1.06,-10.55,2.35,10.86
0.0,0.0,26149,1.06,-10.51,2.39,10.83
0.0,0.0,26144,1.06,-10.51,2.39,10.83
0.0,0.0,26164,1.06,-10.47,2.39,10.8
0.0,0.0,26173,1.02,-10.59,2.39,10.91
0.0,0.0,26166,1.06,-10.55,2.35,10.86
0.0,0.0,26155,1.06,-10.55,2.43,10.88
0.0,0.0,26159,1.18,-10.43,2.43,10.78
0.0,0.0,26159,1.06,-10.47,2.35,10.79
0.0,0.0,26172,1.1,-10.51,2.31,10.82
0.0,0.0,26175,1.02,-10.47,2.43,10.8
0.0,0.0,26167,1.02,-10.51,2.35,10.82
0.0,0.0,26166,1.1,-10.51,2.35,10.83
0.0,0.0,26173,1.02,-10.51,2.39,10.83
0.0,0.0,26173,1.06,-10.51,2.43,10.84
0.0,0.0,26171,1.02,-10.55,2.31,10.85
0.0,0.0,26166,1.06,-10.55,2.47,10.89
0.0,0.0,26176,1.02,-10.51,2.35,10.82
0.0,0.0,26168,0.98,-10.47,2.39,10.79
0.0,0.0,26169,1.02,-10.51,2.39,10.83
0.0,0.0,26182,1.06,-10.55,2.39,10.87
0.0,0.0,26172,0.98,-10.51,2.39,10.83
0.0,0.0,26142,1.1,-10.36,2.28,10.66
0.0,0.0,26164,1.02,-10.51,2.39,10.83
0.0,0.0,26175,1.02,-10.47,2.39,10.79
0.0,0.0,26162,1.06,-10.47,2.31,10.78
0.0,0.0,26168,1.1,-10.51,2.39,10.84
0.0,0.0,26162,1.06,-10.55,2.35,10.86
0.0,0.0,26169,1.06,-10.51,2.43,10.84
0.0,0.0,26158,1.02,-10.47,2.39,10.79
0.0,0.0,26159,1.06,-10.51,2.39,10.83
0.0,0.0,26159,1.02,-10.47,2.39,10.79
0.0,0.0,26176,1.06,-10.47,2.39,10.8
0.0,0.0,26162,1.02,-10.51,2.35,10.82
0.0,0.0,26180,1.06,-10.51,2.35,10.82
0.0,0.0,26164,1.02,-10.51,2.39,10.83
0.0,0.0,26181,1.02,-10.47,2.43,10.8
0.0,0.0,26165,1.06,-10.51,2.43,10.84
0.0,0.0,26167,1.06,-10.47,2.39,10.8
0.0,0.0,26159,1.1,-10.51,2.35,10.83
0.0,0.0,26167,1.02,-10.55,2.39,10.87
0.0,0.0,26155,0.98,-10.47,2.39,10.79
0.0,0.0,26146,1.02,-10.43,2.43,10.76
0.0,0.0,26189,1.02,-10.47,2.39,10.79
0.0,0.0,26150,1.02,-10.51,2.35,10.82
0.0,0.0,26160,1.06,-10.47,2.39,10.8
0.0,0.0,26159,1.06,-10.55,2.43,10.88
0.0,0.0,26165,1.1,-10.55,2.39,10.88
0.0,0.0,26182,1.06,-10.51,2.39,10.83
0.0,0.0,26174,1.02,-10.51,2.39,10.83
0.0,0.0,26163,1.02,-10.55,2.43,10.88
0.0,0.0,26156,1.06,-10.51,2.39,10.83
0.0,0.0,26171,1.02,-10.47,2.35,10.78
0.0,0.0,26170,1.06,-10.51,2.35,10.82
0.0,0.0,26155,1.02,-10.47,2.35,10.78
0.0,0.0,26155,1.06,-10.51,2.43,10.84
0.0,0.0,26161,1.02,-10.51,2.35,10.82
0.0,0.0,26159,1.02,-10.55,2.28,10.84
0.0,0.0,26174,1.06,-10.43,2.35,10.75
0.0,0.0,26169,1.06,-10.59,2.35,10.9
0.0,0.0,26160,1.02,-10.51,2.35,10.82
0.0,0.0,26171,1.06,-10.51,2.43,10.84
0.0,0.0,26174,1.06,-10.51,2.43,10.84
0.0,0.0,26179,1.02,-10.47,2.35,10.78
0.0,0.0,26195,1.06,-10.51,2.43,10.84
0.0,0.0,26168,1.06,-10.51,2.39,10.83
0.0,0.0,26173,1.02,-10.51,2.39,10.83
0.0,0.0,26164,1.06,-10.47,2.43,10.8
0.0,0.0,26150,1.02,-10.47,2.35,10.78
0.0,0.0,26167,1.02,-10.55,2.35,10.86
0.0,0.0,26169,1.06,-10.51,2.43,10.84
0.0,0.0,26174,1.02,-10.47,2.2,10.75
0.0,0.0,26163,1.1,-10.55,2.35,10.87
0.0,0.0,26192,1.02,-10.43,2.39,10.75
0.0,0.0,26170,1.1,-10.55,2.35,10.87
0.0,0.0,26177,1.06,-10.51,2.39,10.83
0.0,0.0,26168,1.02,-10.51,2.43,10.84
0.0,0.0,26180,1.06,-10.55,2.31,10.85
0.0,0.0,26188,1.06,-10.47,2.35,10.79
0.0,0.0,26162,1.02,-10.55,2.35,10.86
0.0,0.0,26168,1.06,-10.51,2.35,10.82
0.0,0.0,26164,1.06,-10.51,2.31,10.82
0.0,0.0,26164,1.06,-10.51,2.39,10.83
0.0,0.0,26152,1.06,-10.55,2.39,10.87
0.0,0.0,26168,1.06,-10.47,2.35,10.79
0.0,0.0,26158,1.06,-10.51,2.39,10.83
0.0,0.0,26158,1.02,-10.51,2.35,10.82
0.0,0.0,26160,0.98,-10.51,2.39,10.83
0.0,0.0,26148,1.06,-10.47,2.39,10.8
0.0,0.0,26159,1.06,-10.51,2.39,10.83
0.0,0.0,26162,1.06,-10.47,2.39,10.8
0.0,0.0,26161,1.02,-10.51,2.39,10.83
0.0,0.0,26175,1.02,-10.47,2.39,10.79
0.0,0.0,26174,1.06,-10.55,2.39,10.87
0.0,0.0,26150,1.02,-10.67,2.39,10.98
0.0,0.0,26162,1.06,-10.51,2.39,10.83
0.0,0.0,26168,1.1,-10.51,2.35,10.83
0.0,0.0,26167,1.06,-10.51,2.31,10.82
0.0,0.0,26174,1.02,-10.51,2.39,10.83
0.0,0.0,26149,1.06,-10.47,2.39,10.8
0.0,0.0,26175,1.06,-10.51,2.39,10.83
0.0,0.0,26174,1.06,-10.47,2.43,10.8
0.0,0.0,26170,1.1,-10.51,2.43,10.85
0.0,0.0,26169,1.02,-10.47,2.43,10.8
0.0,0.0,26165,1.06,-10.51,2.39,10.83
0.0,0.0,26173,1.06,-10.43,2.39,10.76
0.0,0.0,26179,1.02,-10.51,2.39,10.83
0.0,0.0,26180,1.06,-10.55,2.24,10.84
0.0,0.0,26177,1.06,-10.47,2.39,10.8
0.0,0.0,26176,1.02,-10.47,2.39,10.79
0.0,0.0,26181,1.06,-10.51,2.43,10.84
0.0,0.0,26178,1.1,-10.55,2.39,10.88
0.0,0.0,26168,1.06,-10.51,2.35,10.82
0.0,0.0,26171,1.18,-10.47,2.47,10.83
0.0,0.0,26183,1.02,-10.55,2.43,10.88
0.0,0.0,26171,1.06,-10.51,2.35,10.82
0.0,0.0,26178,1.02,-10.55,2.39,10.87
0.0,0.0,26181,1.02,-10.51,2.43,10.84
0.0,0.0,26183,1.02,-10.55,2.39,10.87
0.0,0.0,26143,1.02,-10.47,2.39,10.79
0.0,0.0,26172,1.02,-10.47,2.35,10.78
0.0,0.0,26183,1.06,-10.55,2.35,10.86
0.0,0.0,26179,1.02,-10.47,2.28,10.77
0.0,0.0,26197,1.06,-10.51,2.39,10.83
0.0,0.0,26167,1.02,-10.47,2.39,10.79
0.0,0.0,26175,0.98,-10.47,2.31,10.77
0.0,0.0,26173,1.02,-10.47,2.39,10.79
0.0,0.0,26184,1.06,-10.51,2.31,10.82
0.0,0.0,26196,1.06,-10.47,2.39,10.8
0.0,0.0,26171,1.02,-10.47,2.35,10.78
0.0,0.0,26176,1.02,-10.47,2.39,10.79
0.0,0.0,26171,1.06,-10.51,2.39,10.83
0.0,0.0,26159,1.06,-10.43,2.28,10.73
0.0,0.0,26166,1.06,-10.47,2.35,10.79
0.0,0.0,26178,1.06,-10.51,2.39,10.83
0.0,0.0,26174,1.02,-10.51,2.31,10.81
0.0,0.0,26176,1.06,-10.47,2.39,10.8
0.0,0.0,26165,1.06,-10.51,2.35,10.82
0.0,0.0,26174,1.06,-10.51,2.39,10.83
0.0,0.0,26177,1.06,-10.51,2.35,10.82
0.0,0.0,26174,1.06,-10.55,2.43,10.88
0.0,0.0,26176,1.06,-10.51,2.39,10.83
0.0,0.0,26189,1.06,-10.55,2.39,10.87
0.0,0.0,26181,1.02,-10.51,2.39,10.83
0.0,0.0,26178,0.98,-10.51,2.39,10.83
0.0,0.0,26185,1.06,-10.51,2.39,10.83
0.0,0.0,26196,1.02,-10.47,2.47,10.81
0.0,0.0,26197,1.06,-10.55,2.35,10.86
0.0,0.0,26193,1.02,-10.55,2.35,10.86
0.0,0.0,26190,1.06,-10.51,2.35,10.82
0.0,0.0,26185,1.1,-10.51,2.47,10.85
0.0,0.0,26203,1.06,-10.51,2.39,10.83
0.0,0.0,26214,1.02,-10.51,2.35,10.82
0.0,0.0,26200,1.1,-10.55,2.35,10.87
0.0,0.0,26172,1.02,-10.51,2.39,10.83
0.0,0.0,26184,1.06,-10.55,2.35,10.86
0.0,0.0,26179,1.02,-10.47,2.39,10.79
0.0,0.0,26156,1.02,-10.47,2.35,10.78
0.0,0.0,26156,1.1,-10.55,2.43,10.88
0.0,0.0,26155,1.06,-10.43,2.39,10.76
0.0,0.0,26157,1.02,-10.47,2.39,10.79
0.0,0.0,26160,1.1,-10.51,2.35,10.83
0.0,0.0,26173,1.02,-10.51,2.43,10.84
0.0,0.0,26166,1.1,-10.47,2.35,10.79
0.0,0.0,26163,1.02,-10.47,2.35,10.78
0.0,0.0,26185,1.02,-10.51,2.39,10.83
0.0,0.0,26190,1.06,-10.55,2.31,10.85
0.0,0.0,26170,1.06,-10.47,2.39,10.8
0.0,0.0,26165,1.14,-10.47,2.35,10.79
0.0,0.0,26167,1.02,-10.51,2.39,10.83
0.0,0.0,26165,1.06,-10.47,2.39,10.8
0.0,0.0,26189,1.06,-10.47,2.35,10.79
0.0,0.0,26160,1.02,-10.51,2.39,10.83
0.0,0.0,26161,1.02,-10.47,2.35,10.78
0.0,0.0,26160,1.06,-10.51,2.39,10.83
0.0,0.0,26130,1.06,-10.55,2.35,10.86
0.0,0.0,26159,0.98,-10.51,2.39,10.83
0.0,0.0,26158,1.02,-10.51,2.43,10.84
0.0,0.0,26162,1.02,-10.51,2.35,10.82
0.0,0.0,26183,1.06,-10.47,2.35,10.79
0.0,0.0,26145,1.1,-10.51,2.43,10.85
0.0,0.0,26164,1.06,-10.51,2.35,10.82
0.0,0.0,26162,1.06,-10.51,2.39,10.83
0.0,0.0,26168,1.06,-10.51,2.35,10.82
0.0,0.0,26165,1.02,-10.47,2.39,10.79
0.0,0.0,26157,1.06,-10.47,2.35,10.79
0.0,0.0,26167,1.02,-10.55,2.35,10.86
0.0,0.0,26163,1.06,-10.51,2.35,10.82
0.0,0.0,26164,1.06,-10.51,2.35,10.82
0.0,0.0,26160,1.06,-10.51,2.31,10.82
0.0,0.0,26151,1.06,-10.47,2.35,10.79
0.0,0.0,26158,0.98,-10.47,2.43,10.8
0.0,0.0,26168,1.06,-10.55,2.35,10.86
0.0,0.0,26195,1.02,-10.47,2.35,10.78
0.0,0.0,26163,1.02,-10.47,2.39,10.79
0.0,0.0,26162,1.06,-10.55,2.43,10.88
0.0,0.0,26164,1.02,-10.51,2.39,10.83
0.0,0.0,26165,1.06,-10.55,2.31,10.85
0.0,0.0,26173,1.06,-10.51,2.35,10.82
0.0,0.0,26155,1.06,-10.51,2.31,10.82
0.0,0.0,26152,1.06,-10.51,2.39,10.83
0.0,0.0,26169,1.1,-10.51,2.51,10.86
0.0,0.0,26176,1.06,-10.51,2.35,10.82
0.0,0.0,26165,1.14,-10.51,2.39,10.84
0.0,0.0,26159,1.06,-10.51,2.35,10.82
0.0,0.0,26199,1.1,-10.51,2.31,10.82
0.0,0.0,26168,1.06,-10.47,2.39,10.8
0.0,0.0,26171,1.06,-10.51,2.39,10.83
0.0,0.0,26163,1.02,-10.55,2.39,10.87
0.0,0.0,26167,1.14,-10.43,2.35,10.76
0.0,0.0,26169,1.06,-10.51,2.35,10.82
0.0,0.0,26177,1.06,-10.47,2.39,10.8
0.0,0.0,26163,1.02,-10.47,2.31,10.77
0.0,0.0,26166,1.06,-10.47,2.35,10.79
0.0,0.0,26166,1.02,-10.51,2.39,10.83
0.0,0.0,26157,1.06,-10.51,2.39,10.83
0.0,0.0,26161,1.1,-10.51,2.39,10.84
0.0,0.0,26154,1.02,-10.51,2.39,10.83
0.0,0.0,26158,1.1,-10.55,2.35,10.87
0.0,0.0,26159,1.02,-10.47,2.35,10.78
0.0,0.0,26163,1.06,-10.55,2.35,10.86
0.0,0.0,26140,1.06,-10.55,2.39,10.87
0.0,0.0,26157,1.1,-10.51,2.39,10.84
0.0,0.0,26145,1.06,-10.51,2.39,10.83
0.0,0.0,26188,1.02,-10.51,2.43,10.84
0.0,0.0,26157,1.1,-10.59,2.43,10.92
0.0,0.0,26170,1.1,-10.59,2.35,10.9
0.0,0.0,26162,1.02,-10.47,2.39,10.79
0.0,0.0,26188,1.02,-10.55,2.51,10.89
0.0,0.0,26143,1.1,-10.55,2.39,10.88
0.0,0.0,26163,1.02,-10.55,2.51,10.89
0.0,0.0,26161,1.06,-10.47,2.39,10.8
0.0,0.0,26160,1.06,-10.51,2.35,10.82
0.0,0.0,26167,1.06,-10.55,2.39,10.87
0.0,0.0,26165,1.1,-10.55,2.47,10.89
0.0,0.0,26170,1.02,-10.47,2.39,10.79
0.0,0.0,26172,1.02,-10.47,2.47,10.81
0.0,0.0,26164,0.98,-10.47,2.39,10.79
0.0,0.0,26205,1.02,-10.47,2.35,10.78
0.0,0.0,26188,1.06,-10.43,2.39,10.76
0.0,0.0,26160,1.02,-10.43,2.43,10.76
0.0,0.0,26168,1.06,-10.51,2.31,10.82
0.0,0.0,26161,0.98,-10.51,2.35,10.82
0.0,0.0,26167,1.02,-10.43,2.35,10.74
0.0,0.0,26155,1.06,-10.47,2.39,10.8
0.0,0.0,26163,0.98,-10.51,2.31,10.81
0.0,0.0,26162,1.02,-10.51,2.35,10.82
0.0,0.0,26169,1.06,-10.47,2.39,10.8
0.0,0.0,26182,1.06,-10.51,2.39,10.83
0.0,0.0,26178,1.06,-10.55,2.39,10.87
0.0,0.0,26159,1.06,-10.51,2.35,10.82
0.0,0.0,26171,1.1,-10.55,2.39,10.88
0.0,0.0,26166,1.06,-10.51,2.39,10.83
0.0,0.0,26167,1.06,-10.51,2.35,10.82
0.0,0.0,26163,1.06,-10.55,2.31,10.85
0.0,0.0,26177,1.1,-10.55,2.35,10.87
0.0,0.0,26171,1.1,-10.51,2.35,10.83
0.0,0.0,26167,1.06,-10.47,2.39,10.8
0.0,0.0,26167,1.02,-10.47,2.39,10.79
0.0,0.0,26164,1.06,-10.47,2.39,10.8
0.0,0.0,26159,1.02,-10.51,2.43,10.84
0.0,0.0,26196,1.02,-10.51,2.39,10.83
0.0,0.0,26177,1.06,-10.51,2.35,10.82
0.0,0.0,26197,1.06,-10.51,2.28,10.81
0.0,0.0,26253,0.98,-10.55,2.35,10.86
0.0,0.0,26235,1.14,-10.47,2.47,10.82
0.0,0.0,26254,1.1,-10.51,2.31,10.82
0.0,0.0,26243,1.02,-10.59,2.35,10.9
0.0,0.0,26269,1.1,-10.55,2.31,10.86
0.0,0.0,26305,1.02,-10.51,2.39,10.83
0.0,0.0,26329,1.1,-10.55,2.35,10.87
0.0,0.0,26306,1.06,-10.55,2.31,10.85
0.0,0.0,26300,1.06,-10.36,2.43,10.69
0.0,0.0,26327,1.02,-10.47,2.43,10.8
0.0,0.0,26306,1.1,-10.51,2.43,10.85
0.0,0.0,26342,0.98,-10.43,2.43,10.76
0.0,0.0,26276,0.98,-10.43,2.39,10.75
0.0,0.0,26332,1.02,-10.43,2.47,10.77
0.0,0.0,26302,1.06,-10.47,2.35,10.79
0.0,0.0,26301,1.06,-10.47,2.39,10.8
0.0,0.0,26313,1.1,-10.47,2.43,10.81
0.0,0.0,26321,1.02,-10.43,2.47,10.77
0.0,0.0,26502,1.02,-10.51,2.51,10.86
0.0,0.0,26594,1.02,-10.55,2.51,10.89
0.0,0.0,26612,1.06,-10.47,2.47,10.81
0.0,0.0,26622,1.06,-10.67,2.35,10.98
0.0,0.0,26546,1.06,-10.51,2.35,10.82
0.0,0.0,26533,1.06,-10.43,2.51,10.78
0.0,0.0,26494,1.1,-10.51,2.39,10.84
0.0,0.0,26507,1.06,-10.55,2.43,10.88
0.0,0.0,26502,1.1,-10.55,2.39,10.88
0.0,0.0,26498,1.06,-10.47,2.39,10.8
0.0,0.0,26511,1.02,-10.51,2.39,10.83
0.0,0.0,26518,1.06,-10.43,2.35,10.75
0.0,0.0,26509,1.06,-10.51,2.47,10.85
0.0,0.0,26518,1.02,-10.47,2.47,10.81
0.0,0.0,26531,1.1,-10.51,2.39,10.84
0.0,0.0,26542,1.02,-10.55,2.39,10.87
0.0,0.0,26545,1.06,-10.47,2.43,10.8
0.0,0.0,26544,1.02,-10.55,2.43,10.88
0.0,0.0,26531,1.1,-10.55,2.43,10.88
0.0,0.0,26535,1.02,-10.47,2.43,10.8
0.0,0.0,26527,1.02,-10.55,2.35,10.86
0.0,0.0,26539,1.06,-10.51,2.35,10.82
0.0,0.0,26526,1.02,-10.4,2.43,10.72
0.0,0.0,26531,1.06,-10.51,2.43,10.84
0.0,0.0,26533,1.02,-10.51,2.47,10.85
0.0,0.0,26521,1.06,-10.47,2.43,10.8
0.0,0.0,26526,1.06,-10.55,2.39,10.87
0.0,0.0,26548,1.02,-10.47,2.39,10.79
0.0,0.0,26516,1.1,-10.55,2.43,10.88
0.0,0.0,26543,1.06,-10.47,2.43,10.8
0.0,0.0,26547,1.02,-10.43,2.51,10.78
0.0,0.0,26530,1.06,-10.51,2.43,10.84
0.0,0.0,26535,0.98,-10.43,2.43,10.76
0.0,0.0,26525,1.1,-10.51,2.43,10.85
0.0,0.0,26517,1.06,-10.55,2.43,10.88
0.0,0.0,26539,1.02,-10.51,2.47,10.85
0.0,0.0,26532,1.1,-10.51,2.24,10.8
0.0,0.0,26553,1.1,-10.51,2.35,10.83
0.0,0.0,26532,1.06,-10.51,2.43,10.84
0.0,0.0,26552,1.06,-10.51,2.39,10.83
0.0,0.0,26536,1.02,-10.47,2.35,10.78
0.0,0.0,26533,1.06,-10.55,2.35,10.86
0.0,0.0,26540,1.06,-10.55,2.43,10.88
0.0,0.0,26546,1.06,-10.47,2.43,10.8
0.0,0.0,26539,1.02,-10.51,2.39,10.83
0.0,0.0,26524,1.1,-10.47,2.43,10.81
0.0,0.0,26546,1.06,-10.47,2.47,10.81
0.0,0.0,26539,1.06,-10.47,2.39,10.8
0.0,0.0,26551,1.1,-10.47,2.39,10.8
0.0,0.0,26563,1.02,-10.47,2.47,10.81
0.0,0.0,26507,1.02,-10.55,2.35,10.86
0.0,0.0,26555,0.98,-10.43,2.47,10.77
0.0,0.0,26584,1.14,-10.59,2.47,10.94
0.0,0.0,26519,1.02,-10.43,2.47,10.77
0.0,0.0,26541,1.06,-10.55,2.35,10.86
0.0,0.0,26529,1.06,-10.51,2.35,10.82
0.0,0.0,26560,1.06,-10.55,2.43,10.88
0.0,0.0,26538,1.1,-10.47,2.47,10.82
0.0,0.0,26543,0.98,-10.47,2.39,10.79
0.0,0.0,26549,1.06,-10.51,2.35,10.82
0.0,0.0,26583,1.06,-10.51,2.24,10.8
